{
  "resourceType": "Bundle",
  "type": "searchset",
  "total": 89,
  "entry": [
    {
      "fullUrl": "Composition/se3xozbxob9xhFbYf",
      "resource": {
        "resourceType": "Composition",
        "identifier": {},
        "status": "preliminary",
        "type": {},
        "class": {},
        "subject": {
          "display": "",
          "reference": ""
        },
        "encounter": {
          "display": "",
          "reference": ""
        },
        "date": "2021-08-20",
        "author": [
          {
            "display": "",
            "reference": ""
          }
        ],
        "title": "Continuity of Care Document",
        "confidentiality": "0",
        "attester": [],
        "custodian": {
          "display": "",
          "reference": ""
        },
        "relatesTo": [],
        "event": [],
        "section": [
          {
            "reference": "CarePlan/183431002"
          },
          {
            "reference": "CarePlan/fostercare"
          },
          {
            "reference": "CarePlan/183431002"
          },
          {
            "reference": "Condition/d2572945953"
          },
          {
            "reference": "Condition/d2572625093"
          },
          {
            "reference": "Condition/d2572625395"
          },
          {
            "reference": "Condition/p73127139"
          },
          {
            "reference": "Condition/d2572625099"
          },
          {
            "reference": "Condition/p73134223"
          },
          {
            "reference": "Condition/p73140495"
          },
          {
            "reference": "Condition/d2573352115"
          },
          {
            "reference": "Condition/d2572942669"
          },
          {
            "reference": "Condition/d2572625409"
          },
          {
            "reference": "Condition/d2572625151"
          },
          {
            "reference": "Condition/d2572625371"
          },
          {
            "reference": "Condition/d2572625139"
          },
          {
            "reference": "Condition/d2572625145"
          },
          {
            "reference": "Condition/p73176651"
          },
          {
            "reference": "Condition/p73163197"
          },
          {
            "reference": "Condition/d2572625377"
          },
          {
            "reference": "Consent/undefined"
          },
          {
            "reference": "Immunization/M197442882"
          },
          {
            "reference": "Immunization/M197198352"
          },
          {
            "reference": "Immunization/M197198356"
          },
          {
            "reference": "Immunization/M197198360"
          },
          {
            "reference": "Immunization/M197198364"
          },
          {
            "reference": "Immunization/M197198368"
          },
          {
            "reference": "Immunization/M197198372"
          },
          {
            "reference": "Immunization/M197198376"
          },
          {
            "reference": "Immunization/M197198380"
          },
          {
            "reference": "Observation/160817004"
          },
          {
            "reference": "Observation/70849001"
          },
          {
            "reference": "Observation/160497005"
          },
          {
            "reference": "Observation/266935003"
          },
          {
            "reference": "Observation/371779005"
          },
          {
            "reference": "Observation/397940009"
          },
          {
            "reference": "Observation/418189009"
          },
          {
            "reference": "Observation/224338007"
          },
          {
            "reference": "Observation/423824003"
          },
          {
            "reference": "Observation/161036002"
          },
          {
            "reference": "Observation/704659007"
          },
          {
            "reference": "Observation/440379008"
          },
          {
            "reference": "Observation/733423003"
          },
          {
            "reference": "Observation/772993004"
          },
          {
            "reference": "Observation/125191000119105"
          },
          {
            "reference": "Observation/288171000119109"
          },
          {
            "reference": "Observation/237461000119103"
          },
          {
            "reference": "Observation/15928061000119107"
          },
          {
            "reference": "Observation/160868001"
          },
          {
            "reference": "Observation/M-197505594"
          },
          {
            "reference": "Observation/M-197505596"
          },
          {
            "reference": "Observation/SH-73116875-q4625825"
          },
          {
            "reference": "Observation/SH-93-73116875"
          },
          {
            "reference": "Observation/SH-73116895-q4626038"
          },
          {
            "reference": "Observation/SH-70-73116895"
          },
          {
            "reference": "Observation/SH-73116885-q4625817"
          },
          {
            "reference": "Observation/SH-1-73116885"
          },
          {
            "reference": "Patient/12724069"
          },
          {
            "reference": "Patient/nancy-smart"
          },
          {
            "reference": "Practitioner/maggie-caseworker"
          },
          {
            "reference": "Procedure/408935001"
          },
          {
            "reference": "Procedure/2572738951"
          },
          {
            "reference": "Procedure/306090001"
          },
          {
            "reference": "Procedure/306238000"
          },
          {
            "reference": "Procedure/275821008"
          },
          {
            "reference": "Procedure/410552003"
          },
          {
            "reference": "Procedure/308440001"
          },
          {
            "reference": "Procedure/370853001"
          },
          {
            "reference": "Procedure/309630000"
          },
          {
            "reference": "Procedure/3457005"
          },
          {
            "reference": "Procedure/2658000"
          },
          {
            "reference": "Procedure/22759000"
          },
          {
            "reference": "Procedure/162596006"
          },
          {
            "reference": "Procedure/225338004"
          },
          {
            "reference": "Procedure/225340009"
          },
          {
            "reference": "Procedure/306206005"
          },
          {
            "reference": "Procedure/410341008"
          },
          {
            "reference": "Procedure/386497007"
          },
          {
            "reference": "Procedure/700230007"
          },
          {
            "reference": "Procedure/370854007"
          },
          {
            "reference": "Procedure/408933008"
          },
          {
            "reference": "Procedure/1002224003"
          },
          {
            "reference": "Procedure/183432009"
          },
          {
            "reference": "Procedure/2572645903"
          },
          {
            "reference": "Procedure/2572738681"
          },
          {
            "reference": "Procedure/288834001"
          },
          {
            "reference": "Procedure/84100007"
          },
          {
            "reference": "Procedure/2572738975"
          },
          {
            "reference": "Procedure/2572738961"
          }
        ]
      }
    },
    {
      "fullUrl": "CarePlan/183431002",
      "resource": {
        "resourceType": "CarePlan",
        "id": "183431002",
        "status": "active",
        "intent": "proposal",
        "subject": {
          "display": "Timmy Smart",
          "reference": "Patient/12724069"
        },
        "period": {
          "start": "2020-09-01T05:00:00.000Z",
          "end": "2028-01-01T05:00:00.000Z"
        },
        "title": "Monitoring For Child Abuse",
        "description": "Monitoring for child abuse (regime/therapy)",
        "code": {
          "coding": [
            {
              "system": "http://snomed.info/sct",
              "code": "710998001",
              "display": "Monitoring for child abuse (regime/therapy)"
            }
          ],
          "text": "Monitoring for child abuse (regime/therapy)"
        },
        "goal": [
          {
            "display": "Food Security",
            "reference": "Goal/foodsecurity"
          },
          {
            "display": "Housing Security",
            "reference": "Goal/housingsecurity"
          }
        ],
        "_id": "LewTL6JFqhyRTvvRD"
      }
    },
    {
      "fullUrl": "CarePlan/fostercare",
      "resource": {
        "resourceType": "CarePlan",
        "id": "fostercare",
        "status": "active",
        "intent": "proposal",
        "subject": {
          "display": "Nancy Smart",
          "reference": "Patient/nancy-smart"
        },
        "period": {
          "start": "2021-01-01T05:00:00.000Z",
          "end": "2028-01-01T05:00:00.000Z"
        },
        "title": "Parental Loss Care Plan",
        "description": "Own child has been fostered (regime/therapy)",
        "code": {
          "coding": [
            {
              "system": "http://snomed.info/sct",
              "code": "183433004",
              "display": "Own child has been fostered (regime/therapy)"
            }
          ],
          "text": "Own child has been fostered (regime/therapy)"
        },
        "goal": [
          {
            "display": "Food Security",
            "reference": "Goal/foodsecurity"
          },
          {
            "display": "Housing Security",
            "reference": "Goal/housingsecurity"
          }
        ],
        "_id": "u4mpmc4eiyG7XGKYu"
      }
    },
    {
      "fullUrl": "CarePlan/183431002",
      "resource": {
        "resourceType": "CarePlan",
        "id": "183431002",
        "status": "active",
        "intent": "proposal",
        "subject": {
          "display": "Timmy Smart",
          "reference": "Patient/12724069"
        },
        "period": {
          "start": "2021-01-01T05:00:00.000Z",
          "end": "2028-01-01T05:00:00.000Z"
        },
        "title": "Foster Care",
        "description": "Foster care (regime/therapy)",
        "code": {
          "coding": [
            {
              "system": "http://snomed.info/sct",
              "code": "183431002",
              "display": "Foster care (regime/therapy)"
            }
          ],
          "text": "Foster care (regime/therapy)"
        },
        "goal": [
          {
            "display": "Food Security",
            "reference": "Goal/foodsecurity"
          },
          {
            "display": "Housing Security",
            "reference": "Goal/housingsecurity"
          }
        ],
        "_id": "HZChjbLBXKhjPFxAh"
      }
    },
    {
      "fullUrl": "Condition/d2572945953",
      "resource": {
        "resourceType": "Condition",
        "id": "d2572945953",
        "clinicalStatus": {
          "coding": [
            {
              "system": "http://terminology.hl7.org/CodeSystem/condition-clinical",
              "code": "active",
              "display": "Active"
            }
          ],
          "text": "Active"
        },
        "verificationStatus": {
          "coding": [
            {
              "system": "http://terminology.hl7.org/CodeSystem/condition-ver-status",
              "code": "confirmed",
              "display": "Confirmed",
              "userSelected": false
            }
          ],
          "text": "Confirmed"
        },
        "category": [
          {
            "coding": [
              {
                "system": "http://terminology.hl7.org/CodeSystem/condition-category",
                "code": "encounter-diagnosis",
                "display": "Encounter Diagnosis"
              }
            ],
            "text": "Encounter Diagnosis"
          },
          {
            "coding": [
              {
                "system": "http://snomed.info/sct",
                "code": "74188005",
                "display": "Medical (qualifier value)",
                "userSelected": false
              }
            ],
            "text": "Medical"
          }
        ],
        "code": {
          "coding": [
            {
              "system": "http://snomed.info/sct",
              "code": "90235006",
              "display": "Closed fracture of shaft of humerus (disorder)",
              "userSelected": false
            },
            {
              "system": "http://e-imo.com/products/problem-it",
              "code": "884851",
              "display": "Unspecified fracture of shaft of humerus, left arm, initial encounter for closed fracture",
              "userSelected": false
            },
            {
              "system": "http://hl7.org/fhir/sid/icd-10-cm",
              "code": "S42.302A",
              "display": "Unspecified fracture of shaft of humerus, left arm, initial encounter for closed fracture",
              "userSelected": false
            }
          ],
          "text": "Unspecified fracture of shaft of humerus, left arm, initial encounter for closed fracture"
        },
        "subject": {
          "reference": "Patient/12724069",
          "display": "SMART, TIMMY"
        },
        "encounter": {
          "reference": "Encounter/97953492"
        },
        "onsetDateTime": "2020-08-15T18:14:36.000Z",
        "recordedDate": "2020-08-15T18:14:36.000Z",
        "_id": "gueZxbyqoPtBSW9Se"
      }
    },
    {
      "fullUrl": "Condition/d2572625093",
      "resource": {
        "resourceType": "Condition",
        "id": "d2572625093",
        "clinicalStatus": {
          "coding": [
            {
              "system": "http://terminology.hl7.org/CodeSystem/condition-clinical",
              "code": "active",
              "display": "Active"
            }
          ],
          "text": "Active"
        },
        "verificationStatus": {
          "coding": [
            {
              "system": "http://terminology.hl7.org/CodeSystem/condition-ver-status",
              "code": "differential",
              "display": "Differential",
              "userSelected": false
            }
          ],
          "text": "Differential"
        },
        "category": [
          {
            "coding": [
              {
                "system": "http://terminology.hl7.org/CodeSystem/condition-category",
                "code": "encounter-diagnosis",
                "display": "Encounter Diagnosis"
              }
            ],
            "text": "Encounter Diagnosis"
          },
          {
            "coding": [
              {
                "system": "http://snomed.info/sct",
                "code": "74188005",
                "display": "Medical (qualifier value)",
                "userSelected": false
              }
            ],
            "text": "Medical"
          }
        ],
        "code": {
          "coding": [
            {
              "system": "http://snomed.info/sct",
              "code": "82271004",
              "display": "Injury of head (disorder)",
              "userSelected": false
            }
          ],
          "text": "Head Injury"
        },
        "subject": {
          "reference": "Patient/12724069",
          "display": "SMART, TIMMY"
        },
        "encounter": {
          "reference": "Encounter/97955046"
        },
        "onsetDateTime": "2015-10-26T14:36:46.000Z",
        "recordedDate": "2015-10-26T14:36:47.000Z",
        "_id": "2gaD5jtPmM5Q7e2bX"
      }
    },
    {
      "fullUrl": "Condition/d2572625395",
      "resource": {
        "resourceType": "Condition",
        "id": "d2572625395",
        "clinicalStatus": {
          "coding": [
            {
              "system": "http://terminology.hl7.org/CodeSystem/condition-clinical",
              "code": "active",
              "display": "Active"
            }
          ],
          "text": "Active"
        },
        "verificationStatus": {
          "coding": [
            {
              "system": "http://terminology.hl7.org/CodeSystem/condition-ver-status",
              "code": "differential",
              "display": "Differential",
              "userSelected": false
            }
          ],
          "text": "Differential"
        },
        "category": [
          {
            "coding": [
              {
                "system": "http://terminology.hl7.org/CodeSystem/condition-category",
                "code": "encounter-diagnosis",
                "display": "Encounter Diagnosis"
              }
            ],
            "text": "Encounter Diagnosis"
          },
          {
            "coding": [
              {
                "system": "http://snomed.info/sct",
                "code": "74188005",
                "display": "Medical (qualifier value)",
                "userSelected": false
              }
            ],
            "text": "Medical"
          }
        ],
        "code": {
          "coding": [
            {
              "system": "http://hl7.org/fhir/sid/icd-9-cm",
              "code": "985.9",
              "display": "Toxic effect of unspecified metal",
              "userSelected": false
            }
          ],
          "text": "Heavy Metal Intoxication"
        },
        "subject": {
          "reference": "Patient/12724069",
          "display": "SMART, TIMMY"
        },
        "encounter": {
          "reference": "Encounter/97955046"
        },
        "onsetDateTime": "2012-02-06T14:48:47.000Z",
        "recordedDate": "2012-02-06T14:48:47.000Z",
        "_id": "zvvvEbmp8XDjHHyZZ"
      }
    },
    {
      "fullUrl": "Condition/p73127139",
      "resource": {
        "resourceType": "Condition",
        "id": "p73127139",
        "clinicalStatus": {
          "coding": [
            {
              "system": "http://terminology.hl7.org/CodeSystem/condition-clinical",
              "code": "resolved",
              "display": "Resolved",
              "userSelected": false
            }
          ],
          "text": "Resolved"
        },
        "verificationStatus": {
          "coding": [
            {
              "system": "http://terminology.hl7.org/CodeSystem/condition-ver-status",
              "code": "confirmed",
              "display": "Confirmed",
              "userSelected": false
            }
          ],
          "text": "Confirmed"
        },
        "category": [
          {
            "coding": [
              {
                "system": "http://terminology.hl7.org/CodeSystem/condition-category",
                "code": "problem-list-item",
                "display": "Problem List Item"
              }
            ],
            "text": "Problem List Item"
          },
          {
            "coding": [
              {
                "system": "http://snomed.info/sct",
                "code": "74188005",
                "display": "Medical (qualifier value)",
                "userSelected": false
              }
            ],
            "text": "Medical"
          }
        ],
        "code": {
          "coding": [
            {
              "system": "http://e-imo.com/products/problem-it",
              "code": "326266",
              "display": "Hand and wrist extensor tendon rupture",
              "userSelected": false
            },
            {
              "system": "http://snomed.info/sct",
              "code": "202961008",
              "display": "Hand and wrist extensor tendon rupture (disorder)",
              "userSelected": false
            }
          ],
          "text": "Hand and wrist extensor tendon rupture"
        },
        "subject": {
          "reference": "Patient/12724069",
          "display": "SMART, TIMMY"
        },
        "abatementDateTime": "2020-10-15T00:00:00.000Z",
        "recordedDate": "2020-10-15T15:32:41.000Z",
        "_id": "92E9M6eDKzkaDPajQ"
      }
    },
    {
      "fullUrl": "Condition/d2572625099",
      "resource": {
        "resourceType": "Condition",
        "id": "d2572625099",
        "clinicalStatus": {
          "coding": [
            {
              "system": "http://terminology.hl7.org/CodeSystem/condition-clinical",
              "code": "active",
              "display": "Active"
            }
          ],
          "text": "Active"
        },
        "verificationStatus": {
          "coding": [
            {
              "system": "http://terminology.hl7.org/CodeSystem/condition-ver-status",
              "code": "differential",
              "display": "Differential",
              "userSelected": false
            }
          ],
          "text": "Differential"
        },
        "category": [
          {
            "coding": [
              {
                "system": "http://terminology.hl7.org/CodeSystem/condition-category",
                "code": "encounter-diagnosis",
                "display": "Encounter Diagnosis"
              }
            ],
            "text": "Encounter Diagnosis"
          },
          {
            "coding": [
              {
                "system": "http://snomed.info/sct",
                "code": "74188005",
                "display": "Medical (qualifier value)",
                "userSelected": false
              }
            ],
            "text": "Medical"
          }
        ],
        "code": {
          "coding": [
            {
              "system": "http://hl7.org/fhir/sid/icd-9-cm",
              "code": "324.0",
              "display": "Intracranial abscess",
              "userSelected": false
            }
          ],
          "text": "Intracranial Abscess"
        },
        "subject": {
          "reference": "Patient/12724069",
          "display": "SMART, TIMMY"
        },
        "encounter": {
          "reference": "Encounter/97955046"
        },
        "onsetDateTime": "2015-11-15T14:36:48.000Z",
        "recordedDate": "2015-11-15T14:36:48.000Z",
        "_id": "QkLXhmbEqDdyDXk4a"
      }
    },
    {
      "fullUrl": "Condition/p73134223",
      "resource": {
        "resourceType": "Condition",
        "id": "p73134223",
        "clinicalStatus": {
          "coding": [
            {
              "system": "http://terminology.hl7.org/CodeSystem/condition-clinical",
              "code": "resolved",
              "display": "Resolved",
              "userSelected": false
            }
          ],
          "text": "Resolved"
        },
        "verificationStatus": {
          "coding": [
            {
              "system": "http://terminology.hl7.org/CodeSystem/condition-ver-status",
              "code": "confirmed",
              "display": "Confirmed",
              "userSelected": false
            }
          ],
          "text": "Confirmed"
        },
        "category": [
          {
            "coding": [
              {
                "system": "http://terminology.hl7.org/CodeSystem/condition-category",
                "code": "problem-list-item",
                "display": "Problem List Item"
              }
            ],
            "text": "Problem List Item"
          },
          {
            "coding": [
              {
                "system": "http://snomed.info/sct",
                "code": "74188005",
                "display": "Medical (qualifier value)",
                "userSelected": false
              }
            ],
            "text": "Medical"
          }
        ],
        "code": {
          "coding": [
            {
              "system": "http://snomed.info/sct",
              "code": "23406007",
              "display": "Fracture of upper limb (disorder)",
              "userSelected": false
            },
            {
              "system": "http://e-imo.com/products/problem-it",
              "code": "360345",
              "display": "Broken arm",
              "userSelected": false
            }
          ],
          "text": "Broken arm"
        },
        "subject": {
          "reference": "Patient/12724069",
          "display": "SMART, TIMMY"
        },
        "abatementDateTime": "2020-10-15T00:00:00.000Z",
        "recordedDate": "2020-10-15T08:38:29.000Z",
        "_id": "jn4SnYS8miQCiF3FK"
      }
    },
    {
      "fullUrl": "Condition/p73140495",
      "resource": {
        "resourceType": "Condition",
        "id": "p73140495",
        "clinicalStatus": {
          "coding": [
            {
              "system": "http://terminology.hl7.org/CodeSystem/condition-clinical",
              "code": "resolved",
              "display": "Resolved",
              "userSelected": false
            }
          ],
          "text": "Resolved"
        },
        "verificationStatus": {
          "coding": [
            {
              "system": "http://terminology.hl7.org/CodeSystem/condition-ver-status",
              "code": "confirmed",
              "display": "Confirmed",
              "userSelected": false
            }
          ],
          "text": "Confirmed"
        },
        "category": [
          {
            "coding": [
              {
                "system": "http://terminology.hl7.org/CodeSystem/condition-category",
                "code": "problem-list-item",
                "display": "Problem List Item"
              }
            ],
            "text": "Problem List Item"
          },
          {
            "coding": [
              {
                "system": "http://snomed.info/sct",
                "code": "74188005",
                "display": "Medical (qualifier value)",
                "userSelected": false
              }
            ],
            "text": "Medical"
          }
        ],
        "code": {
          "coding": [
            {
              "system": "http://snomed.info/sct",
              "code": "288241003",
              "display": "Pain in limb - multiple (finding)",
              "userSelected": false
            },
            {
              "system": "http://e-imo.com/products/problem-it",
              "code": "41286627",
              "display": "Right hand and foot pain",
              "userSelected": false
            }
          ],
          "text": "Right hand and foot pain"
        },
        "subject": {
          "reference": "Patient/12724069",
          "display": "SMART, TIMMY"
        },
        "abatementDateTime": "2020-12-22T00:00:00.000Z",
        "recordedDate": "2020-12-22T13:52:11.000Z",
        "_id": "6eACZw4CBjG5XXGy4"
      }
    },
    {
      "fullUrl": "Condition/d2573352115",
      "resource": {
        "resourceType": "Condition",
        "id": "d2573352115",
        "clinicalStatus": {
          "coding": [
            {
              "system": "http://terminology.hl7.org/CodeSystem/condition-clinical",
              "code": "active",
              "display": "Active"
            }
          ],
          "text": "Active"
        },
        "verificationStatus": {
          "coding": [
            {
              "system": "http://terminology.hl7.org/CodeSystem/condition-ver-status",
              "code": "confirmed",
              "display": "Confirmed",
              "userSelected": false
            }
          ],
          "text": "Confirmed"
        },
        "category": [
          {
            "coding": [
              {
                "system": "http://terminology.hl7.org/CodeSystem/condition-category",
                "code": "encounter-diagnosis",
                "display": "Encounter Diagnosis"
              }
            ],
            "text": "Encounter Diagnosis"
          },
          {
            "coding": [
              {
                "system": "http://snomed.info/sct",
                "code": "74188005",
                "display": "Medical (qualifier value)",
                "userSelected": false
              }
            ],
            "text": "Medical"
          }
        ],
        "code": {
          "coding": [
            {
              "system": "http://snomed.info/sct",
              "code": "52603002",
              "display": "Closed fracture of lower limb (disorder)",
              "userSelected": true
            },
            {
              "system": "http://hl7.org/fhir/sid/icd-10-cm",
              "code": "S82.91XA",
              "display": "Unspecified fracture of right lower leg, initial encounter for closed fracture",
              "userSelected": false
            }
          ],
          "text": "Closed fracture of right lower extremity, initial encounter"
        },
        "subject": {
          "reference": "Patient/12724069",
          "display": "SMART, TIMMY"
        },
        "encounter": {
          "reference": "Encounter/97953492"
        },
        "onsetDateTime": "2020-06-02T16:08:15.000Z",
        "recordedDate": "2020-06-02T16:08:15.000Z",
        "_id": "Aw9hjTYaCShG7WFKJ"
      }
    },
    {
      "fullUrl": "Condition/d2572942669",
      "resource": {
        "resourceType": "Condition",
        "id": "d2572942669",
        "clinicalStatus": {
          "coding": [
            {
              "system": "http://terminology.hl7.org/CodeSystem/condition-clinical",
              "code": "active",
              "display": "Active"
            }
          ],
          "text": "Active"
        },
        "verificationStatus": {
          "coding": [
            {
              "system": "http://terminology.hl7.org/CodeSystem/condition-ver-status",
              "code": "confirmed",
              "display": "Confirmed",
              "userSelected": false
            }
          ],
          "text": "Confirmed"
        },
        "category": [
          {
            "coding": [
              {
                "system": "http://terminology.hl7.org/CodeSystem/condition-category",
                "code": "encounter-diagnosis",
                "display": "Encounter Diagnosis"
              }
            ],
            "text": "Encounter Diagnosis"
          },
          {
            "coding": [
              {
                "system": "http://snomed.info/sct",
                "code": "74188005",
                "display": "Medical (qualifier value)",
                "userSelected": false
              }
            ],
            "text": "Medical"
          }
        ],
        "code": {
          "coding": [
            {
              "system": "http://snomed.info/sct",
              "code": "47933007",
              "display": "Foot pain (finding)",
              "userSelected": false
            },
            {
              "system": "http://e-imo.com/products/problem-it",
              "code": "711482",
              "display": "Pain in right foot",
              "userSelected": false
            },
            {
              "system": "http://hl7.org/fhir/sid/icd-10-cm",
              "code": "M79.671",
              "display": "Pain in right foot",
              "userSelected": false
            }
          ],
          "text": "Pain in right foot"
        },
        "subject": {
          "reference": "Patient/12724069",
          "display": "SMART, TIMMY"
        },
        "encounter": {
          "reference": "Encounter/97953492"
        },
        "onsetDateTime": "2020-09-10T13:52:12.000Z",
        "recordedDate": "2020-09-10T13:52:12.000Z",
        "_id": "Zmt4svG3CGD5dkSSx"
      }
    },
    {
      "fullUrl": "Condition/d2572625409",
      "resource": {
        "resourceType": "Condition",
        "id": "d2572625409",
        "clinicalStatus": {
          "coding": [
            {
              "system": "http://terminology.hl7.org/CodeSystem/condition-clinical",
              "code": "active",
              "display": "Active"
            }
          ],
          "text": "Active"
        },
        "verificationStatus": {
          "coding": [
            {
              "system": "http://terminology.hl7.org/CodeSystem/condition-ver-status",
              "code": "differential",
              "display": "Differential",
              "userSelected": false
            }
          ],
          "text": "Differential"
        },
        "category": [
          {
            "coding": [
              {
                "system": "http://terminology.hl7.org/CodeSystem/condition-category",
                "code": "encounter-diagnosis",
                "display": "Encounter Diagnosis"
              }
            ],
            "text": "Encounter Diagnosis"
          },
          {
            "coding": [
              {
                "system": "http://snomed.info/sct",
                "code": "74188005",
                "display": "Medical (qualifier value)",
                "userSelected": false
              }
            ],
            "text": "Medical"
          }
        ],
        "code": {
          "coding": [
            {
              "system": "http://snomed.info/sct",
              "code": "216654003",
              "display": "Accidental poisoning by household agents (disorder)",
              "userSelected": false
            }
          ],
          "text": "Industrial / Household Toxicity"
        },
        "subject": {
          "reference": "Patient/12724069",
          "display": "SMART, TIMMY"
        },
        "encounter": {
          "reference": "Encounter/97955046"
        },
        "onsetDateTime": "2012-01-15T14:48:50.000Z",
        "recordedDate": "2012-01-15T14:48:50.000Z",
        "_id": "mfDS65XAzTNKEMFms"
      }
    },
    {
      "fullUrl": "Condition/d2572625151",
      "resource": {
        "resourceType": "Condition",
        "id": "d2572625151",
        "clinicalStatus": {
          "coding": [
            {
              "system": "http://terminology.hl7.org/CodeSystem/condition-clinical",
              "code": "active",
              "display": "Active"
            }
          ],
          "text": "Active"
        },
        "verificationStatus": {
          "coding": [
            {
              "system": "http://terminology.hl7.org/CodeSystem/condition-ver-status",
              "code": "differential",
              "display": "Differential",
              "userSelected": false
            }
          ],
          "text": "Differential"
        },
        "category": [
          {
            "coding": [
              {
                "system": "http://terminology.hl7.org/CodeSystem/condition-category",
                "code": "encounter-diagnosis",
                "display": "Encounter Diagnosis"
              }
            ],
            "text": "Encounter Diagnosis"
          },
          {
            "coding": [
              {
                "system": "http://snomed.info/sct",
                "code": "74188005",
                "display": "Medical (qualifier value)",
                "userSelected": false
              }
            ],
            "text": "Medical"
          }
        ],
        "code": {
          "coding": [
            {
              "system": "http://hl7.org/fhir/sid/icd-10-cm",
              "code": "T56.2X3S",
              "display": "Toxic effect of chromium and its compounds, assault, sequela",
              "userSelected": false
            }
          ],
          "text": "Chromium Toxicity"
        },
        "subject": {
          "reference": "Patient/12724069",
          "display": "SMART, TIMMY"
        },
        "encounter": {
          "reference": "Encounter/97955046"
        },
        "onsetDateTime": "2012-06-20T14:40:19.000Z",
        "recordedDate": "2012-06-20T14:40:19.000Z",
        "_id": "zEZcBWyByqmpgQuQP"
      }
    },
    {
      "fullUrl": "Condition/d2572625371",
      "resource": {
        "resourceType": "Condition",
        "id": "d2572625371",
        "clinicalStatus": {
          "coding": [
            {
              "system": "http://terminology.hl7.org/CodeSystem/condition-clinical",
              "code": "active",
              "display": "Active"
            }
          ],
          "text": "Active"
        },
        "verificationStatus": {
          "coding": [
            {
              "system": "http://terminology.hl7.org/CodeSystem/condition-ver-status",
              "code": "differential",
              "display": "Differential",
              "userSelected": false
            }
          ],
          "text": "Differential"
        },
        "category": [
          {
            "coding": [
              {
                "system": "http://terminology.hl7.org/CodeSystem/condition-category",
                "code": "encounter-diagnosis",
                "display": "Encounter Diagnosis"
              }
            ],
            "text": "Encounter Diagnosis"
          },
          {
            "coding": [
              {
                "system": "http://snomed.info/sct",
                "code": "74188005",
                "display": "Medical (qualifier value)",
                "userSelected": false
              }
            ],
            "text": "Medical"
          }
        ],
        "code": {
          "coding": [
            {
              "system": "http://hl7.org/fhir/sid/icd-9-cm",
              "code": "985.0",
              "display": "Toxic effect of mercury and its compounds",
              "userSelected": false
            }
          ],
          "text": "Mercury Intoxication"
        },
        "subject": {
          "reference": "Patient/12724069",
          "display": "SMART, TIMMY"
        },
        "encounter": {
          "reference": "Encounter/97955046"
        },
        "onsetDateTime": "2012-02-16T14:45:55.000Z",
        "recordedDate": "2012-02-16T14:45:55.000Z",
        "_id": "FBQuhYDwX4QHyQmBc"
      }
    },
    {
      "fullUrl": "Condition/d2572625139",
      "resource": {
        "resourceType": "Condition",
        "id": "d2572625139",
        "clinicalStatus": {
          "coding": [
            {
              "system": "http://terminology.hl7.org/CodeSystem/condition-clinical",
              "code": "active",
              "display": "Active"
            }
          ],
          "text": "Active"
        },
        "verificationStatus": {
          "coding": [
            {
              "system": "http://terminology.hl7.org/CodeSystem/condition-ver-status",
              "code": "differential",
              "display": "Differential",
              "userSelected": false
            }
          ],
          "text": "Differential"
        },
        "category": [
          {
            "coding": [
              {
                "system": "http://terminology.hl7.org/CodeSystem/condition-category",
                "code": "encounter-diagnosis",
                "display": "Encounter Diagnosis"
              }
            ],
            "text": "Encounter Diagnosis"
          },
          {
            "coding": [
              {
                "system": "http://snomed.info/sct",
                "code": "74188005",
                "display": "Medical (qualifier value)",
                "userSelected": false
              }
            ],
            "text": "Medical"
          }
        ],
        "code": {
          "coding": [
            {
              "system": "http://snomed.info/sct",
              "code": "216792005",
              "display": "Accidental poisoning by arsenic and its compounds and fumes (disorder)",
              "userSelected": false
            }
          ],
          "text": "Arsenic Toxicity"
        },
        "subject": {
          "reference": "Patient/12724069",
          "display": "SMART, TIMMY"
        },
        "encounter": {
          "reference": "Encounter/97955046"
        },
        "onsetDateTime": "2012-03-20T14:36:57.000Z",
        "recordedDate": "2012-03-20T14:36:57.000Z",
        "_id": "2tjT6HA9pkKKh6YE8"
      }
    },
    {
      "fullUrl": "Condition/d2572625145",
      "resource": {
        "resourceType": "Condition",
        "id": "d2572625145",
        "clinicalStatus": {
          "coding": [
            {
              "system": "http://terminology.hl7.org/CodeSystem/condition-clinical",
              "code": "active",
              "display": "Active"
            }
          ],
          "text": "Active"
        },
        "verificationStatus": {
          "coding": [
            {
              "system": "http://terminology.hl7.org/CodeSystem/condition-ver-status",
              "code": "differential",
              "display": "Differential",
              "userSelected": false
            }
          ],
          "text": "Differential"
        },
        "category": [
          {
            "coding": [
              {
                "system": "http://terminology.hl7.org/CodeSystem/condition-category",
                "code": "encounter-diagnosis",
                "display": "Encounter Diagnosis"
              }
            ],
            "text": "Encounter Diagnosis"
          },
          {
            "coding": [
              {
                "system": "http://snomed.info/sct",
                "code": "74188005",
                "display": "Medical (qualifier value)",
                "userSelected": false
              }
            ],
            "text": "Medical"
          }
        ],
        "code": {
          "coding": [
            {
              "system": "http://hl7.org/fhir/sid/icd-9-cm",
              "code": "493.90",
              "display": "Asthma, unspecified",
              "userSelected": false
            }
          ],
          "text": "Asthma"
        },
        "subject": {
          "reference": "Patient/12724069",
          "display": "SMART, TIMMY"
        },
        "encounter": {
          "reference": "Encounter/97955046"
        },
        "onsetDateTime": "2014-10-26T14:40:17.000Z",
        "recordedDate": "2014-10-26T14:40:18.000Z",
        "_id": "pnvTGbKpaza6NYeJt"
      }
    },
    {
      "fullUrl": "Condition/p73176651",
      "resource": {
        "resourceType": "Condition",
        "id": "p73176651",
        "clinicalStatus": {
          "coding": [
            {
              "system": "http://terminology.hl7.org/CodeSystem/condition-clinical",
              "code": "active",
              "display": "Active",
              "userSelected": false
            }
          ],
          "text": "Active"
        },
        "verificationStatus": {
          "coding": [
            {
              "system": "http://terminology.hl7.org/CodeSystem/condition-ver-status",
              "code": "confirmed",
              "display": "Confirmed",
              "userSelected": false
            }
          ],
          "text": "Confirmed"
        },
        "category": [
          {
            "coding": [
              {
                "system": "http://terminology.hl7.org/CodeSystem/condition-category",
                "code": "problem-list-item",
                "display": "Problem List Item"
              }
            ],
            "text": "Problem List Item"
          },
          {
            "coding": [
              {
                "system": "http://snomed.info/sct",
                "code": "74188005",
                "display": "Medical (qualifier value)",
                "userSelected": false
              }
            ],
            "text": "Medical"
          }
        ],
        "code": {
          "coding": [
            {
              "system": "http://e-imo.com/products/problem-it",
              "code": "711829",
              "display": "Broken leg",
              "userSelected": false
            },
            {
              "system": "http://snomed.info/sct",
              "code": "46866001",
              "display": "Fracture of lower limb (disorder)",
              "userSelected": false
            }
          ],
          "text": "Broken leg"
        },
        "subject": {
          "reference": "Patient/12724069",
          "display": "SMART, TIMMY"
        },
        "onsetDateTime": "2020-06-15T00:00:00.000Z",
        "recordedDate": "2020-06-15T02:04:26.000Z",
        "_id": "EDFiABhozAoBXKBkF"
      }
    },
    {
      "fullUrl": "Condition/p73163197",
      "resource": {
        "resourceType": "Condition",
        "id": "p73163197",
        "clinicalStatus": {
          "coding": [
            {
              "system": "http://terminology.hl7.org/CodeSystem/condition-clinical",
              "code": "resolved",
              "display": "Resolved",
              "userSelected": false
            }
          ],
          "text": "Resolved"
        },
        "verificationStatus": {
          "coding": [
            {
              "system": "http://terminology.hl7.org/CodeSystem/condition-ver-status",
              "code": "confirmed",
              "display": "Confirmed",
              "userSelected": false
            }
          ],
          "text": "Confirmed"
        },
        "category": [
          {
            "coding": [
              {
                "system": "http://terminology.hl7.org/CodeSystem/condition-category",
                "code": "problem-list-item",
                "display": "Problem List Item"
              }
            ],
            "text": "Problem List Item"
          },
          {
            "coding": [
              {
                "system": "http://snomed.info/sct",
                "code": "74188005",
                "display": "Medical (qualifier value)",
                "userSelected": false
              }
            ],
            "text": "Medical"
          }
        ],
        "code": {
          "coding": [
            {
              "system": "http://snomed.info/sct",
              "code": "49727002",
              "display": "Cough (finding)",
              "userSelected": false
            },
            {
              "system": "http://e-imo.com/products/problem-it",
              "code": "41149",
              "display": "Cough",
              "userSelected": false
            },
            {
              "system": "http://hl7.org/fhir/sid/icd-10-cm",
              "code": "R05",
              "display": "Cough",
              "userSelected": false
            }
          ],
          "text": "Cough"
        },
        "subject": {
          "reference": "Patient/12724069",
          "display": "SMART, TIMMY"
        },
        "onsetDateTime": "2016-04-01T00:00:00.000Z",
        "abatementDateTime": "2018-05-20T00:00:00.000Z",
        "recordedDate": "2016-05-04T21:24:46.000Z",
        "_id": "RmBeutAXd8SybNuuX"
      }
    },
    {
      "fullUrl": "Condition/d2572625377",
      "resource": {
        "resourceType": "Condition",
        "id": "d2572625377",
        "clinicalStatus": {
          "coding": [
            {
              "system": "http://terminology.hl7.org/CodeSystem/condition-clinical",
              "code": "active",
              "display": "Active"
            }
          ],
          "text": "Active"
        },
        "verificationStatus": {
          "coding": [
            {
              "system": "http://terminology.hl7.org/CodeSystem/condition-ver-status",
              "code": "differential",
              "display": "Differential",
              "userSelected": false
            }
          ],
          "text": "Differential"
        },
        "category": [
          {
            "coding": [
              {
                "system": "http://terminology.hl7.org/CodeSystem/condition-category",
                "code": "encounter-diagnosis",
                "display": "Encounter Diagnosis"
              }
            ],
            "text": "Encounter Diagnosis"
          },
          {
            "coding": [
              {
                "system": "http://snomed.info/sct",
                "code": "74188005",
                "display": "Medical (qualifier value)",
                "userSelected": false
              }
            ],
            "text": "Medical"
          }
        ],
        "code": {
          "coding": [
            {
              "system": "http://hl7.org/fhir/sid/icd-10-cm",
              "code": "G60.0",
              "display": "Hereditary motor and sensory neuropathy",
              "userSelected": false
            }
          ],
          "text": "Hereditary motor and sensory neuropathy"
        },
        "subject": {
          "reference": "Patient/12724069",
          "display": "SMART, TIMMY"
        },
        "encounter": {
          "reference": "Encounter/97955046"
        },
        "onsetDateTime": "2015-09-01T14:45:56.000Z",
        "recordedDate": "2015-09-01T14:45:56.000Z",
        "_id": "eLG9ciKEgKfQKRPay"
      }
    },
    {
      "fullUrl": "Consent/undefined",
      "resource": {
        "resourceType": "Consent",
        "status": "active",
        "scope": {
          "coding": [
            {
              "system": "http://terminology.hl7.org/CodeSystem/consentscope",
              "code": "patient-privacy",
              "display": "Privacy Consent"
            }
          ]
        },
        "category": [
          {
            "coding": [
              {
                "system": "http://terminology.hl7.org/CodeSystem/v3-ActCode",
                "code": "ICOL",
                "display": "information collection"
              }
            ]
          }
        ],
        "patient": {
          "display": "Timmy Smart",
          "reference": "Patient/12724069"
        },
        "dateTime": "2021-08-06T00:00:00.000Z",
        "policy": [
          {
            "uri": "https://docs.google.com/document/d/10Y-rEtVQiTWTy7tU-Slw5urAv5RVN38DwSGMVz84Phg/edit?usp=sharing"
          }
        ],
        "_id": "eNa2EoWXCQEk2JQSc"
      }
    },
    {
      "fullUrl": "Immunization/M197442882",
      "resource": {
        "resourceType": "Immunization",
        "id": "M197442882",
        "identifier": [
          {
            "system": "https://fhir.cerner.com/ceuuid",
            "value": "CE87caf4b7-9397-4667-9897-702218017c9e-197442882-2021020917043200"
          }
        ],
        "status": "completed",
        "vaccineCode": {
          "coding": [
            {
              "system": "https://fhir.cerner.com/ec2458f2-1e24-41c8-b71b-0e701af7583d/codeSet/72",
              "code": "2820755",
              "display": "influenza virus vaccine, inactivated",
              "userSelected": true
            },
            {
              "system": "http://hl7.org/fhir/sid/cvx",
              "code": "88",
              "display": "influenza virus vaccine, unspecified formulation",
              "userSelected": false
            }
          ],
          "text": "influenza virus vaccine, inactivated"
        },
        "patient": {
          "reference": "Patient/12724069",
          "display": "SMART, TIMMY"
        },
        "encounter": {
          "reference": "Encounter/97957260"
        },
        "occurrenceDateTime": "2021-02-09T11:03:00-06:00",
        "primarySource": true,
        "location": {
          "reference": "Location/21250403",
          "display": "MX Hospital"
        },
        "manufacturer": {
          "display": "Akorn Inc"
        },
        "lotNumber": "123",
        "expirationDate": "2021-02-20T00:00:00.000Z",
        "site": {
          "coding": [
            {
              "system": "https://fhir.cerner.com/ec2458f2-1e24-41c8-b71b-0e701af7583d/codeSet/97",
              "code": "592",
              "display": "Arm Upper, Left",
              "userSelected": true
            },
            {
              "system": "http://snomed.info/sct",
              "code": "368208006",
              "display": "Left upper arm structure (body structure)",
              "userSelected": false
            }
          ],
          "text": "Arm Upper, Left"
        },
        "route": {
          "coding": [
            {
              "system": "https://fhir.cerner.com/ec2458f2-1e24-41c8-b71b-0e701af7583d/codeSet/4001",
              "code": "318167",
              "display": "IM",
              "userSelected": true
            },
            {
              "system": "http://snomed.info/sct",
              "code": "78421000",
              "display": "Intramuscular route (qualifier value)",
              "userSelected": false
            }
          ],
          "text": "IM"
        },
        "doseQuantity": {
          "value": 0.5,
          "unit": "mL",
          "system": "http://unitsofmeasure.org",
          "code": "mL"
        },
        "performer": [
          {
            "function": {
              "coding": [
                {
                  "system": "http://terminology.hl7.org/CodeSystem/v2-0443",
                  "code": "AP",
                  "display": "Administering Provider"
                }
              ],
              "text": "Administering Provider"
            },
            "actor": {
              "reference": "Practitioner/12743472",
              "display": "A., Jodi"
            }
          },
          {
            "function": {
              "coding": [
                {
                  "system": "http://terminology.hl7.org/CodeSystem/v2-0443",
                  "code": "OP",
                  "display": "Ordering Provider"
                }
              ],
              "text": "Ordering Provider"
            },
            "actor": {
              "reference": "Practitioner/12744688",
              "display": "PWDentrix, Dentalprofessional"
            }
          },
          {
            "actor": {
              "reference": "Organization/675844",
              "display": "Model Hospital"
            }
          }
        ],
        "_id": "hQgKBoFw9sZZ8ppBp"
      }
    },
    {
      "fullUrl": "Immunization/M197198352",
      "resource": {
        "resourceType": "Immunization",
        "id": "M197198352",
        "identifier": [
          {
            "system": "https://fhir.cerner.com/ceuuid",
            "value": "CE87caf4b7-9397-4667-9897-702218017c9e-197198352-2019122620215100"
          }
        ],
        "status": "completed",
        "vaccineCode": {
          "coding": [
            {
              "system": "https://fhir.cerner.com/ec2458f2-1e24-41c8-b71b-0e701af7583d/codeSet/72",
              "code": "2797623",
              "display": "diphtheria toxoid",
              "userSelected": true
            },
            {
              "system": "http://hl7.org/fhir/sid/cvx",
              "code": "12",
              "display": "diphtheria antitoxin",
              "userSelected": false
            }
          ],
          "text": "diphtheria toxoid"
        },
        "patient": {
          "reference": "Patient/12724069",
          "display": "SMART, TIMMY"
        },
        "encounter": {
          "reference": "Encounter/97939527"
        },
        "occurrenceDateTime": "2012-04",
        "primarySource": false,
        "reportOrigin": {
          "coding": [
            {
              "system": "https://fhir.cerner.com/ec2458f2-1e24-41c8-b71b-0e701af7583d/codeSet/30200",
              "code": "679976",
              "display": "Mother",
              "userSelected": true
            },
            {
              "system": "http://terminology.hl7.org/CodeSystem/immunization-origin",
              "code": "recall",
              "display": "Parent/Guardian/Patient Recall",
              "userSelected": false
            }
          ],
          "text": "Mother"
        },
        "location": {
          "reference": "Location/21250403",
          "display": "MX Hospital"
        },
        "doseQuantity": {
          "value": 0,
          "unit": "unknown unit",
          "system": "http://unitsofmeasure.org",
          "code": "{unknownunit}"
        },
        "performer": [
          {
            "actor": {
              "reference": "Organization/675844",
              "display": "Model Hospital"
            }
          }
        ],
        "_id": "BhriCNaXzrwnj7P4g"
      }
    },
    {
      "fullUrl": "Immunization/M197198356",
      "resource": {
        "resourceType": "Immunization",
        "id": "M197198356",
        "identifier": [
          {
            "system": "https://fhir.cerner.com/ceuuid",
            "value": "CE87caf4b7-9397-4667-9897-702218017c9e-197198356-2019122620215100"
          }
        ],
        "status": "completed",
        "vaccineCode": {
          "coding": [
            {
              "system": "https://fhir.cerner.com/ec2458f2-1e24-41c8-b71b-0e701af7583d/codeSet/72",
              "code": "3366120",
              "display": "hepatitis A pediatric vaccine",
              "userSelected": true
            },
            {
              "system": "http://hl7.org/fhir/sid/cvx",
              "code": "85",
              "display": "hepatitis A vaccine, unspecified formulation",
              "userSelected": false
            }
          ],
          "text": "hepatitis A pediatric vaccine"
        },
        "patient": {
          "reference": "Patient/12724069",
          "display": "SMART, TIMMY"
        },
        "encounter": {
          "reference": "Encounter/97939527"
        },
        "occurrenceDateTime": "2013-02",
        "primarySource": false,
        "reportOrigin": {
          "coding": [
            {
              "system": "https://fhir.cerner.com/ec2458f2-1e24-41c8-b71b-0e701af7583d/codeSet/30200",
              "code": "679976",
              "display": "Mother",
              "userSelected": true
            },
            {
              "system": "http://terminology.hl7.org/CodeSystem/immunization-origin",
              "code": "recall",
              "display": "Parent/Guardian/Patient Recall",
              "userSelected": false
            }
          ],
          "text": "Mother"
        },
        "location": {
          "reference": "Location/21250403",
          "display": "MX Hospital"
        },
        "doseQuantity": {
          "value": 0,
          "unit": "unknown unit",
          "system": "http://unitsofmeasure.org",
          "code": "{unknownunit}"
        },
        "performer": [
          {
            "actor": {
              "reference": "Organization/675844",
              "display": "Model Hospital"
            }
          }
        ],
        "_id": "nX2DnD9P7bap3xFRY"
      }
    },
    {
      "fullUrl": "Immunization/M197198360",
      "resource": {
        "resourceType": "Immunization",
        "id": "M197198360",
        "identifier": [
          {
            "system": "https://fhir.cerner.com/ceuuid",
            "value": "CE87caf4b7-9397-4667-9897-702218017c9e-197198360-2019122620215100"
          }
        ],
        "status": "completed",
        "vaccineCode": {
          "coding": [
            {
              "system": "https://fhir.cerner.com/ec2458f2-1e24-41c8-b71b-0e701af7583d/codeSet/72",
              "code": "19952796",
              "display": "hepatitis B pediatric vaccine",
              "userSelected": true
            },
            {
              "system": "http://hl7.org/fhir/sid/cvx",
              "code": "08",
              "display": "hepatitis B vaccine, pediatric or pediatric/adolescent dosage",
              "userSelected": false
            }
          ],
          "text": "hepatitis B pediatric vaccine"
        },
        "patient": {
          "reference": "Patient/12724069",
          "display": "SMART, TIMMY"
        },
        "encounter": {
          "reference": "Encounter/97939527"
        },
        "occurrenceDateTime": "2012-04",
        "primarySource": false,
        "reportOrigin": {
          "coding": [
            {
              "system": "https://fhir.cerner.com/ec2458f2-1e24-41c8-b71b-0e701af7583d/codeSet/30200",
              "code": "679976",
              "display": "Mother",
              "userSelected": true
            },
            {
              "system": "http://terminology.hl7.org/CodeSystem/immunization-origin",
              "code": "recall",
              "display": "Parent/Guardian/Patient Recall",
              "userSelected": false
            }
          ],
          "text": "Mother"
        },
        "location": {
          "reference": "Location/21250403",
          "display": "MX Hospital"
        },
        "doseQuantity": {
          "value": 0,
          "unit": "unknown unit",
          "system": "http://unitsofmeasure.org",
          "code": "{unknownunit}"
        },
        "performer": [
          {
            "actor": {
              "reference": "Organization/675844",
              "display": "Model Hospital"
            }
          }
        ],
        "_id": "giRJ5qYJj3iuW2ytm"
      }
    },
    {
      "fullUrl": "Immunization/M197198364",
      "resource": {
        "resourceType": "Immunization",
        "id": "M197198364",
        "identifier": [
          {
            "system": "https://fhir.cerner.com/ceuuid",
            "value": "CE87caf4b7-9397-4667-9897-702218017c9e-197198364-2019122620215100"
          }
        ],
        "status": "completed",
        "vaccineCode": {
          "coding": [
            {
              "system": "https://fhir.cerner.com/ec2458f2-1e24-41c8-b71b-0e701af7583d/codeSet/72",
              "code": "3366117",
              "display": "haemophilus b conj (PRP-OMP) vaccine",
              "userSelected": true
            },
            {
              "system": "http://hl7.org/fhir/sid/cvx",
              "code": "49",
              "display": "Haemophilus influenzae type b vaccine, PRP-OMP conjugate",
              "userSelected": false
            }
          ],
          "text": "haemophilus b conj (PRP-OMP) vaccine"
        },
        "patient": {
          "reference": "Patient/12724069",
          "display": "SMART, TIMMY"
        },
        "encounter": {
          "reference": "Encounter/97939527"
        },
        "occurrenceDateTime": "2012-04",
        "primarySource": false,
        "reportOrigin": {
          "coding": [
            {
              "system": "https://fhir.cerner.com/ec2458f2-1e24-41c8-b71b-0e701af7583d/codeSet/30200",
              "code": "679976",
              "display": "Mother",
              "userSelected": true
            },
            {
              "system": "http://terminology.hl7.org/CodeSystem/immunization-origin",
              "code": "recall",
              "display": "Parent/Guardian/Patient Recall",
              "userSelected": false
            }
          ],
          "text": "Mother"
        },
        "location": {
          "reference": "Location/21250403",
          "display": "MX Hospital"
        },
        "doseQuantity": {
          "value": 0,
          "unit": "unknown unit",
          "system": "http://unitsofmeasure.org",
          "code": "{unknownunit}"
        },
        "performer": [
          {
            "actor": {
              "reference": "Organization/675844",
              "display": "Model Hospital"
            }
          }
        ],
        "_id": "HDQKQbSmnJqXN9cMG"
      }
    },
    {
      "fullUrl": "Immunization/M197198368",
      "resource": {
        "resourceType": "Immunization",
        "id": "M197198368",
        "identifier": [
          {
            "system": "https://fhir.cerner.com/ceuuid",
            "value": "CE87caf4b7-9397-4667-9897-702218017c9e-197198368-2019122620215100"
          }
        ],
        "status": "completed",
        "vaccineCode": {
          "coding": [
            {
              "system": "https://fhir.cerner.com/ec2458f2-1e24-41c8-b71b-0e701af7583d/codeSet/72",
              "code": "2798179",
              "display": "measles/mumps/rubella virus vaccine",
              "userSelected": true
            },
            {
              "system": "http://hl7.org/fhir/sid/cvx",
              "code": "03",
              "display": "measles, mumps and rubella virus vaccine",
              "userSelected": false
            }
          ],
          "text": "measles/mumps/rubella virus vaccine"
        },
        "patient": {
          "reference": "Patient/12724069",
          "display": "SMART, TIMMY"
        },
        "encounter": {
          "reference": "Encounter/97939527"
        },
        "occurrenceDateTime": "2013-02",
        "primarySource": false,
        "reportOrigin": {
          "coding": [
            {
              "system": "https://fhir.cerner.com/ec2458f2-1e24-41c8-b71b-0e701af7583d/codeSet/30200",
              "code": "679976",
              "display": "Mother",
              "userSelected": true
            },
            {
              "system": "http://terminology.hl7.org/CodeSystem/immunization-origin",
              "code": "recall",
              "display": "Parent/Guardian/Patient Recall",
              "userSelected": false
            }
          ],
          "text": "Mother"
        },
        "location": {
          "reference": "Location/21250403",
          "display": "MX Hospital"
        },
        "doseQuantity": {
          "value": 0,
          "unit": "unknown unit",
          "system": "http://unitsofmeasure.org",
          "code": "{unknownunit}"
        },
        "performer": [
          {
            "actor": {
              "reference": "Organization/675844",
              "display": "Model Hospital"
            }
          }
        ],
        "_id": "5JySXQYeNMpJTpJoE"
      }
    },
    {
      "fullUrl": "Immunization/M197198372",
      "resource": {
        "resourceType": "Immunization",
        "id": "M197198372",
        "identifier": [
          {
            "system": "https://fhir.cerner.com/ceuuid",
            "value": "CE87caf4b7-9397-4667-9897-702218017c9e-197198372-2019122620215100"
          }
        ],
        "status": "completed",
        "vaccineCode": {
          "coding": [
            {
              "system": "https://fhir.cerner.com/ec2458f2-1e24-41c8-b71b-0e701af7583d/codeSet/72",
              "code": "3366132",
              "display": "pneumococcal 7-valent vaccine",
              "userSelected": true
            },
            {
              "system": "http://hl7.org/fhir/sid/cvx",
              "code": "100",
              "display": "pneumococcal conjugate vaccine, 7 valent",
              "userSelected": false
            }
          ],
          "text": "pneumococcal 7-valent vaccine"
        },
        "patient": {
          "reference": "Patient/12724069",
          "display": "SMART, TIMMY"
        },
        "encounter": {
          "reference": "Encounter/97939527"
        },
        "occurrenceDateTime": "2012-04",
        "primarySource": false,
        "reportOrigin": {
          "coding": [
            {
              "system": "https://fhir.cerner.com/ec2458f2-1e24-41c8-b71b-0e701af7583d/codeSet/30200",
              "code": "679976",
              "display": "Mother",
              "userSelected": true
            },
            {
              "system": "http://terminology.hl7.org/CodeSystem/immunization-origin",
              "code": "recall",
              "display": "Parent/Guardian/Patient Recall",
              "userSelected": false
            }
          ],
          "text": "Mother"
        },
        "location": {
          "reference": "Location/21250403",
          "display": "MX Hospital"
        },
        "doseQuantity": {
          "value": 0,
          "unit": "unknown unit",
          "system": "http://unitsofmeasure.org",
          "code": "{unknownunit}"
        },
        "performer": [
          {
            "actor": {
              "reference": "Organization/675844",
              "display": "Model Hospital"
            }
          }
        ],
        "_id": "uFFjnEykFSGrqtYe5"
      }
    },
    {
      "fullUrl": "Immunization/M197198376",
      "resource": {
        "resourceType": "Immunization",
        "id": "M197198376",
        "identifier": [
          {
            "system": "https://fhir.cerner.com/ceuuid",
            "value": "CE87caf4b7-9397-4667-9897-702218017c9e-197198376-2019122620215100"
          }
        ],
        "status": "completed",
        "vaccineCode": {
          "coding": [
            {
              "system": "https://fhir.cerner.com/ec2458f2-1e24-41c8-b71b-0e701af7583d/codeSet/72",
              "code": "2799036",
              "display": "poliovirus vaccine, live, trivalent",
              "userSelected": true
            },
            {
              "system": "http://hl7.org/fhir/sid/cvx",
              "code": "02",
              "display": "trivalent poliovirus vaccine, live, oral",
              "userSelected": false
            }
          ],
          "text": "poliovirus vaccine, live, trivalent"
        },
        "patient": {
          "reference": "Patient/12724069",
          "display": "SMART, TIMMY"
        },
        "encounter": {
          "reference": "Encounter/97939527"
        },
        "occurrenceDateTime": "2012-04",
        "primarySource": false,
        "reportOrigin": {
          "coding": [
            {
              "system": "https://fhir.cerner.com/ec2458f2-1e24-41c8-b71b-0e701af7583d/codeSet/30200",
              "code": "679976",
              "display": "Mother",
              "userSelected": true
            },
            {
              "system": "http://terminology.hl7.org/CodeSystem/immunization-origin",
              "code": "recall",
              "display": "Parent/Guardian/Patient Recall",
              "userSelected": false
            }
          ],
          "text": "Mother"
        },
        "location": {
          "reference": "Location/21250403",
          "display": "MX Hospital"
        },
        "doseQuantity": {
          "value": 0,
          "unit": "unknown unit",
          "system": "http://unitsofmeasure.org",
          "code": "{unknownunit}"
        },
        "performer": [
          {
            "actor": {
              "reference": "Organization/675844",
              "display": "Model Hospital"
            }
          }
        ],
        "_id": "8JxsdcL3TyhWfa3LC"
      }
    },
    {
      "fullUrl": "Immunization/M197198380",
      "resource": {
        "_id": "te6kaTZZj2q8Jbk2N",
        "resourceType": "Immunization",
        "id": "M197198380",
        "meta": {
          "versionId": "1",
          "lastUpdated": "2019-12-26T14:21:50-06:00"
        },
        "text": {
          "status": "generated",
          "div": "<div xmlns=\"http://www.w3.org/1999/xhtml\"><p><b>Immunization</b></p><p><b>Vaccine</b>: varicella virus vaccine</p><p><b>Occurrence</b>: Feb 2013</p><p><b>Patient</b>: SMART, TIMMY</p><p><b>Status</b>: Completed</p><p><b>Organization</b>: Model Hospital</p></div>"
        },
        "identifier": [
          {
            "system": "https://fhir.cerner.com/ceuuid",
            "value": "CE87caf4b7-9397-4667-9897-702218017c9e-197198380-2019122620215100"
          }
        ],
        "status": "completed",
        "vaccineCode": {
          "coding": [
            {
              "system": "https://fhir.cerner.com/ec2458f2-1e24-41c8-b71b-0e701af7583d/codeSet/72",
              "code": "2798881",
              "display": "varicella virus vaccine",
              "userSelected": true
            },
            {
              "system": "http://hl7.org/fhir/sid/cvx",
              "code": "21",
              "display": "varicella virus vaccine",
              "userSelected": false
            }
          ],
          "text": "varicella virus vaccine"
        },
        "patient": {
          "reference": "Patient/12724069",
          "display": "SMART, TIMMY"
        },
        "encounter": {
          "reference": "Encounter/97939527"
        },
        "occurrenceDateTime": "2013-02",
        "primarySource": false,
        "reportOrigin": {
          "coding": [
            {
              "system": "https://fhir.cerner.com/ec2458f2-1e24-41c8-b71b-0e701af7583d/codeSet/30200",
              "code": "679976",
              "display": "Mother",
              "userSelected": true
            },
            {
              "system": "http://terminology.hl7.org/CodeSystem/immunization-origin",
              "code": "recall",
              "display": "Parent/Guardian/Patient Recall",
              "userSelected": false
            }
          ],
          "text": "Mother"
        },
        "location": {
          "reference": "Location/21250403",
          "display": "MX Hospital"
        },
        "doseQuantity": {
          "value": 0,
          "unit": "unknown unit",
          "system": "http://unitsofmeasure.org",
          "code": "{unknownunit}"
        },
        "performer": [
          {
            "actor": {
              "reference": "Organization/675844",
              "display": "Model Hospital"
            }
          }
        ]
      }
    },
    {
      "fullUrl": "Observation/160817004",
      "resource": {
        "resourceType": "Observation",
        "id": "160817004",
        "status": "final",
        "category": [
          {
            "coding": [
              {
                "system": "http://terminology.hl7.org/CodeSystem/observation-category",
                "code": "social-history",
                "display": "Social History"
              }
            ],
            "text": "Social History"
          }
        ],
        "code": {
          "coding": [
            {
              "system": "http://snomed.info/sct",
              "code": "160817004",
              "display": "Lost custody of children (finding)"
            }
          ],
          "text": "Lost custody of children (finding)"
        },
        "subject": {
          "display": "SMART, NANCY",
          "reference": "Patient/nancy-smart"
        },
        "issued": 1609536122000,
        "valueCodeableConcept": {
          "text": "Never"
        },
        "_id": "2Dbst5Af4ia7MDbSe"
      }
    },
    {
      "fullUrl": "Observation/70849001",
      "resource": {
        "resourceType": "Observation",
        "id": "70849001",
        "status": "final",
        "category": [
          {
            "coding": [
              {
                "system": "http://terminology.hl7.org/CodeSystem/observation-category",
                "code": "social-history",
                "display": "Social History"
              }
            ],
            "text": "Social History"
          }
        ],
        "code": {
          "coding": [
            {
              "system": "http://snomed.info/sct",
              "code": "70849001",
              "display": "Conflict concerning adopted or foster child (finding)"
            }
          ],
          "text": "Conflict concerning adopted or foster child (finding)"
        },
        "subject": {
          "reference": "Patient/12724069"
        },
        "issued": 1622582522000,
        "valueCodeableConcept": {
          "text": "Never"
        },
        "_id": "FSkCbMJBbcfEY6btQ"
      }
    },
    {
      "fullUrl": "Observation/160497005",
      "resource": {
        "resourceType": "Observation",
        "id": "160497005",
        "status": "final",
        "category": [
          {
            "coding": [
              {
                "system": "http://terminology.hl7.org/CodeSystem/observation-category",
                "code": "social-history",
                "display": "Social History"
              }
            ],
            "text": "Social History"
          }
        ],
        "code": {
          "coding": [
            {
              "system": "http://snomed.info/sct",
              "code": "160497005",
              "display": "Fostered (finding)"
            }
          ],
          "text": "Fostered (finding)"
        },
        "subject": {
          "reference": "Patient/12724069"
        },
        "issued": 1609622522000,
        "valueCodeableConcept": {
          "text": "Never"
        },
        "_id": "xcmyFm4onnP2cJArN"
      }
    },
    {
      "fullUrl": "Observation/266935003",
      "resource": {
        "resourceType": "Observation",
        "id": "266935003",
        "status": "final",
        "category": [
          {
            "coding": [
              {
                "system": "http://terminology.hl7.org/CodeSystem/observation-category",
                "code": "social-history",
                "display": "Social History"
              }
            ],
            "text": "Social History"
          }
        ],
        "code": {
          "coding": [
            {
              "system": "http://snomed.info/sct",
              "code": "266935003",
              "display": "Housing lack (finding)"
            }
          ],
          "text": "Housing lack (finding)"
        },
        "subject": {
          "reference": "Patient/12724069"
        },
        "issued": 1602105722000,
        "valueCodeableConcept": {
          "text": "Never"
        },
        "_id": "XKWSg7vkzNNbE9YKX"
      }
    },
    {
      "fullUrl": "Observation/371779005",
      "resource": {
        "resourceType": "Observation",
        "id": "371779005",
        "status": "final",
        "category": [
          {
            "coding": [
              {
                "system": "http://terminology.hl7.org/CodeSystem/observation-category",
                "code": "social-history",
                "display": "Social History"
              }
            ],
            "text": "Social History"
          }
        ],
        "code": {
          "coding": [
            {
              "system": "http://snomed.info/sct",
              "code": "371779005",
              "display": "Physical child abuse (event)"
            }
          ],
          "text": "Physical child abuse (event)"
        },
        "subject": {
          "reference": "Patient/12724069"
        },
        "issued": 1605475322000,
        "valueCodeableConcept": {
          "text": "Never"
        },
        "_id": "zNPE3eLfYWeKqGGjQ"
      }
    },
    {
      "fullUrl": "Observation/397940009",
      "resource": {
        "resourceType": "Observation",
        "id": "397940009",
        "status": "final",
        "category": [
          {
            "coding": [
              {
                "system": "http://terminology.hl7.org/CodeSystem/observation-category",
                "code": "social-history",
                "display": "Social History"
              }
            ],
            "text": "Social History"
          }
        ],
        "code": {
          "coding": [
            {
              "system": "http://snomed.info/sct",
              "code": "397940009",
              "display": "Victim of child abuse (finding)"
            }
          ],
          "text": "Victim of child abuse (finding)"
        },
        "subject": {
          "reference": "Patient/12724069"
        },
        "issued": 1604265722000,
        "valueCodeableConcept": {
          "text": "Never"
        },
        "_id": "Xno6cGeFCXMXJqWXG"
      }
    },
    {
      "fullUrl": "Observation/418189009",
      "resource": {
        "resourceType": "Observation",
        "id": "418189009",
        "status": "final",
        "category": [
          {
            "coding": [
              {
                "system": "http://terminology.hl7.org/CodeSystem/observation-category",
                "code": "social-history",
                "display": "Social History"
              }
            ],
            "text": "Social History"
          }
        ],
        "code": {
          "coding": [
            {
              "system": "http://snomed.info/sct",
              "code": "418189009",
              "display": "Child abuse (event)"
            }
          ],
          "text": "Child abuse (event)"
        },
        "subject": {
          "reference": "Patient/12724069"
        },
        "issued": 1601846522000,
        "valueCodeableConcept": {
          "text": "Never"
        },
        "_id": "9cY2qiM3wpmxE2XfB"
      }
    },
    {
      "fullUrl": "Observation/224338007",
      "resource": {
        "resourceType": "Observation",
        "id": "224338007",
        "status": "final",
        "category": [
          {
            "coding": [
              {
                "system": "http://terminology.hl7.org/CodeSystem/observation-category",
                "code": "social-history",
                "display": "Social History"
              }
            ],
            "text": "Social History"
          }
        ],
        "code": {
          "coding": [
            {
              "system": "http://snomed.info/sct",
              "code": "224338007",
              "display": "In police custody (finding)"
            }
          ],
          "text": "In police custody (finding)"
        },
        "subject": {
          "reference": "Patient/12724069"
        },
        "issued": 1598995322000,
        "valueCodeableConcept": {
          "text": "Never"
        },
        "_id": "Jqg9GhgwDrkXg97gX"
      }
    },
    {
      "fullUrl": "Observation/423824003",
      "resource": {
        "resourceType": "Observation",
        "id": "423824003",
        "status": "final",
        "category": [
          {
            "coding": [
              {
                "system": "http://terminology.hl7.org/CodeSystem/observation-category",
                "code": "social-history",
                "display": "Social History"
              }
            ],
            "text": "Social History"
          }
        ],
        "code": {
          "coding": [
            {
              "system": "http://snomed.info/sct",
              "code": "423824003",
              "display": "Housing structurally unsound (finding)"
            }
          ],
          "text": "Housing structurally unsound (finding)"
        },
        "subject": {
          "reference": "Patient/12724069"
        },
        "issued": 1601673722000,
        "valueCodeableConcept": {
          "text": "Never"
        },
        "_id": "pk9XKtJfziCpcddsa"
      }
    },
    {
      "fullUrl": "Observation/161036002",
      "resource": {
        "resourceType": "Observation",
        "id": "161036002",
        "status": "final",
        "category": [
          {
            "coding": [
              {
                "system": "http://terminology.hl7.org/CodeSystem/observation-category",
                "code": "social-history",
                "display": "Social History"
              }
            ],
            "text": "Social History"
          }
        ],
        "code": {
          "coding": [
            {
              "system": "http://snomed.info/sct",
              "code": "161036002",
              "display": "Housing adequate (finding)"
            }
          ],
          "text": "Housing adequate (finding)"
        },
        "subject": {
          "reference": "Patient/12724069"
        },
        "issued": 1604265722000,
        "valueCodeableConcept": {
          "text": "Never"
        },
        "_id": "xFtnffs8zsAuJyF23"
      }
    },
    {
      "fullUrl": "Observation/704659007",
      "resource": {
        "resourceType": "Observation",
        "id": "704659007",
        "status": "final",
        "category": [
          {
            "coding": [
              {
                "system": "http://terminology.hl7.org/CodeSystem/observation-category",
                "code": "social-history",
                "display": "Social History"
              }
            ],
            "text": "Social History"
          }
        ],
        "code": {
          "coding": [
            {
              "system": "http://snomed.info/sct",
              "code": "704659007",
              "display": "Child at risk of abuse (finding)"
            }
          ],
          "text": "Child at risk of abuse (finding)"
        },
        "subject": {
          "reference": "Patient/12724069"
        },
        "issued": 1605475322000,
        "valueCodeableConcept": {
          "text": "Never"
        },
        "_id": "scJQ7ZQNstiwEcfjP"
      }
    },
    {
      "fullUrl": "Observation/440379008",
      "resource": {
        "resourceType": "Observation",
        "id": "440379008",
        "status": "final",
        "category": [
          {
            "coding": [
              {
                "system": "http://terminology.hl7.org/CodeSystem/observation-category",
                "code": "social-history",
                "display": "Social History"
              }
            ],
            "text": "Social History"
          }
        ],
        "code": {
          "coding": [
            {
              "system": "http://snomed.info/sct",
              "code": "440379008",
              "display": "Referral to (observable entity)"
            }
          ],
          "text": "Referral to (observable entity)"
        },
        "subject": {
          "reference": "Patient/12724069"
        },
        "issued": 1604784122000,
        "valueCodeableConcept": {
          "text": "Never"
        },
        "_id": "L8oa98bghrzjKbeYj"
      }
    },
    {
      "fullUrl": "Observation/733423003",
      "resource": {
        "resourceType": "Observation",
        "id": "733423003",
        "status": "final",
        "category": [
          {
            "coding": [
              {
                "system": "http://terminology.hl7.org/CodeSystem/observation-category",
                "code": "social-history",
                "display": "Social History"
              }
            ],
            "text": "Social History"
          }
        ],
        "code": {
          "coding": [
            {
              "system": "http://snomed.info/sct",
              "code": "733423003",
              "display": "Food insecurity (finding)"
            }
          ],
          "text": "Food insecurity (finding)"
        },
        "subject": {
          "reference": "Patient/12724069"
        },
        "issued": null,
        "valueCodeableConcept": {
          "text": "Never"
        },
        "_id": "ggT8wxH6J4s44bQsN"
      }
    },
    {
      "fullUrl": "Observation/772993004",
      "resource": {
        "resourceType": "Observation",
        "id": "772993004",
        "status": "final",
        "category": [
          {
            "coding": [
              {
                "system": "http://terminology.hl7.org/CodeSystem/observation-category",
                "code": "social-history",
                "display": "Social History"
              }
            ],
            "text": "Social History"
          }
        ],
        "code": {
          "coding": [
            {
              "system": "http://snomed.info/sct",
              "code": "772993004",
              "display": "History of being in foster care (situation)"
            }
          ],
          "text": "History of being in foster care (situation)"
        },
        "subject": {
          "reference": "Patient/12724069"
        },
        "issued": 1622841722000,
        "valueCodeableConcept": {
          "text": "Never"
        },
        "_id": "aGa2HyE5mbiPjua7m"
      }
    },
    {
      "fullUrl": "Observation/125191000119105",
      "resource": {
        "resourceType": "Observation",
        "id": "125191000119105",
        "status": "final",
        "category": [
          {
            "coding": [
              {
                "system": "http://terminology.hl7.org/CodeSystem/observation-category",
                "code": "social-history",
                "display": "Social History"
              }
            ],
            "text": "Social History"
          }
        ],
        "code": {
          "coding": [
            {
              "system": "http://snomed.info/sct",
              "code": "125191000119105",
              "display": "Family disruption due to child in welfare custody (finding)"
            }
          ],
          "text": "Family disruption due to child in welfare custody (finding)"
        },
        "subject": {
          "reference": "Patient/nancy-smart"
        },
        "issued": 1610745722000,
        "valueCodeableConcept": {
          "text": "Never"
        },
        "_id": "NJjBrYBFT7HXbjSgZ"
      }
    },
    {
      "fullUrl": "Observation/288171000119109",
      "resource": {
        "resourceType": "Observation",
        "id": "288171000119109",
        "status": "final",
        "category": [
          {
            "coding": [
              {
                "system": "http://terminology.hl7.org/CodeSystem/observation-category",
                "code": "social-history",
                "display": "Social History"
              }
            ],
            "text": "Social History"
          }
        ],
        "code": {
          "coding": [
            {
              "system": "http://snomed.info/sct",
              "code": "288171000119109",
              "display": "Child in welfare custody (finding)"
            }
          ],
          "text": "Child in welfare custody (finding)"
        },
        "subject": {
          "reference": "Patient/12724069"
        },
        "issued": 1609536122000,
        "valueCodeableConcept": {
          "text": "Never"
        },
        "_id": "8mPRjX8evjxdd7hKx"
      }
    },
    {
      "fullUrl": "Observation/237461000119103",
      "resource": {
        "resourceType": "Observation",
        "id": "237461000119103",
        "status": "final",
        "category": [
          {
            "coding": [
              {
                "system": "http://terminology.hl7.org/CodeSystem/observation-category",
                "code": "social-history",
                "display": "Social History"
              }
            ],
            "text": "Social History"
          }
        ],
        "code": {
          "coding": [
            {
              "system": "http://snomed.info/sct",
              "code": "237461000119103",
              "display": "Child victim of physical abuse (finding)"
            }
          ],
          "text": "Child victim of physical abuse (finding)"
        },
        "subject": {
          "reference": "Patient/12724069"
        },
        "issued": 1609536122000,
        "valueCodeableConcept": {
          "text": "Never"
        },
        "_id": "qM4JzQ2wDeKQvcgCq"
      }
    },
    {
      "fullUrl": "Observation/15928061000119107",
      "resource": {
        "resourceType": "Observation",
        "id": "15928061000119107",
        "status": "final",
        "category": [
          {
            "coding": [
              {
                "system": "http://terminology.hl7.org/CodeSystem/observation-category",
                "code": "social-history",
                "display": "Social History"
              }
            ],
            "text": "Social History"
          }
        ],
        "code": {
          "coding": [
            {
              "system": "http://snomed.info/sct",
              "code": "15928061000119107",
              "display": "Relationship problem between parent and foster child (finding)"
            }
          ],
          "text": "Relationship problem between parent and foster child (finding)"
        },
        "subject": {
          "reference": "Patient/12724069"
        },
        "issued": 1609536122000,
        "valueCodeableConcept": {
          "text": "Never"
        },
        "_id": "vxjjwmm85LSvXtrQr"
      }
    },
    {
      "fullUrl": "Observation/160868001",
      "resource": {
        "resourceType": "Observation",
        "id": "160868001",
        "status": "final",
        "category": [
          {
            "coding": [
              {
                "system": "http://terminology.hl7.org/CodeSystem/observation-category",
                "code": "social-history",
                "display": "Social History"
              }
            ],
            "text": "Social History"
          }
        ],
        "code": {
          "coding": [
            {
              "system": "http://snomed.info/sct",
              "code": "160868001",
              "display": "Fostering of child, life event (finding)"
            }
          ],
          "text": "Fostering of child, life event (finding)"
        },
        "subject": {
          "reference": "Patient/12724069"
        },
        "issued": 1609536122000,
        "valueCodeableConcept": {
          "text": "Never"
        },
        "_id": "hxZDdTiEHT6xTvfiG"
      }
    },
    {
      "fullUrl": "Observation/M-197505594",
      "resource": {
        "resourceType": "Observation",
        "id": "M-197505594",
        "identifier": [
          {
            "system": "https://fhir.cerner.com/ceuuid",
            "value": "CE87caf4b7-9397-4667-9897-702218017c9e-197505594-2021071620214500"
          }
        ],
        "status": "final",
        "category": [
          {
            "coding": [
              {
                "system": "http://terminology.hl7.org/CodeSystem/observation-category",
                "code": "vital-signs",
                "display": "Vital Signs"
              }
            ],
            "text": "Vital Signs"
          }
        ],
        "code": {
          "coding": [
            {
              "system": "https://fhir.cerner.com/ec2458f2-1e24-41c8-b71b-0e701af7583d/codeSet/72",
              "code": "703540",
              "display": "Respiratory Rate",
              "userSelected": true
            },
            {
              "system": "http://loinc.org",
              "code": "9279-1"
            }
          ],
          "text": "Respiratory Rate"
        },
        "subject": {
          "reference": "Patient/12724069"
        },
        "encounter": {
          "reference": "Encounter/97953492"
        },
        "effectiveDateTime": "2021-07-16T20:21:40.000Z",
        "issued": 1626466900000,
        "valueQuantity": {
          "value": 15,
          "unit": "br/min",
          "system": "http://unitsofmeasure.org",
          "code": "{Breaths}/min"
        },
        "_id": "XkAojFZaMHsmD6ZwP"
      }
    },
    {
      "fullUrl": "Observation/M-197505596",
      "resource": {
        "resourceType": "Observation",
        "id": "M-197505596",
        "identifier": [
          {
            "system": "https://fhir.cerner.com/ceuuid",
            "value": "CE87caf4b7-9397-4667-9897-702218017c9e-197505596-2021071620215200"
          }
        ],
        "status": "final",
        "category": [
          {
            "coding": [
              {
                "system": "http://terminology.hl7.org/CodeSystem/observation-category",
                "code": "vital-signs",
                "display": "Vital Signs"
              }
            ],
            "text": "Vital Signs"
          }
        ],
        "code": {
          "coding": [
            {
              "system": "https://fhir.cerner.com/ec2458f2-1e24-41c8-b71b-0e701af7583d/codeSet/72",
              "code": "4154123",
              "display": "Weight Dosing",
              "userSelected": true
            },
            {
              "system": "http://loinc.org",
              "code": "79348-9"
            },
            {
              "system": "http://loinc.org",
              "code": "29463-7"
            }
          ],
          "text": "Weight Dosing"
        },
        "subject": {
          "reference": "Patient/12724069"
        },
        "encounter": {
          "reference": "Encounter/97953492"
        },
        "effectiveDateTime": "2021-07-16T20:21:40.000Z",
        "issued": 1626466900000,
        "valueQuantity": {
          "value": 80,
          "unit": "kg",
          "system": "http://unitsofmeasure.org",
          "code": "kg"
        },
        "_id": "b6eRCa4KZEJjgMoMX"
      }
    },
    {
      "fullUrl": "Observation/SH-73116875-q4625825",
      "resource": {
        "resourceType": "Observation",
        "id": "SH-73116875-q4625825",
        "status": "final",
        "category": [
          {
            "coding": [
              {
                "system": "http://terminology.hl7.org/CodeSystem/observation-category",
                "code": "social-history",
                "display": "Social History"
              }
            ],
            "text": "Social History"
          }
        ],
        "code": {
          "coding": [
            {
              "system": "http://loinc.org",
              "code": "72166-2"
            }
          ],
          "text": "SHX Tobacco use"
        },
        "subject": {
          "reference": "Patient/12724069"
        },
        "issued": 1607030514000,
        "valueCodeableConcept": {
          "text": "Never (less than 100 in lifetime)"
        },
        "_id": "xoaDmZgpiyugzrsdy"
      }
    },
    {
      "fullUrl": "Observation/SH-93-73116875",
      "resource": {
        "resourceType": "Observation",
        "id": "SH-93-73116875",
        "status": "final",
        "category": [
          {
            "coding": [
              {
                "system": "http://terminology.hl7.org/CodeSystem/observation-category",
                "code": "social-history",
                "display": "Social History"
              }
            ],
            "text": "Social History"
          }
        ],
        "code": {
          "coding": [
            {
              "system": "http://loinc.org",
              "code": "72166-2"
            }
          ],
          "text": "Tobacco"
        },
        "subject": {
          "reference": "Patient/12724069"
        },
        "issued": 1607030514000,
        "hasMember": [
          {
            "reference": "Observation/SH-73116875-q4625825"
          }
        ],
        "_id": "QWPwaZcaum5dRLb8G"
      }
    },
    {
      "fullUrl": "Observation/SH-73116895-q4626038",
      "resource": {
        "resourceType": "Observation",
        "id": "SH-73116895-q4626038",
        "status": "final",
        "category": [
          {
            "coding": [
              {
                "system": "http://terminology.hl7.org/CodeSystem/observation-category",
                "code": "social-history",
                "display": "Social History"
              }
            ],
            "text": "Social History"
          }
        ],
        "code": {
          "coding": [
            {
              "system": "http://snomed.info/sct",
              "code": "228453005",
              "display": "Sexually active (finding)"
            }
          ],
          "text": "SHX Sexually active"
        },
        "subject": {
          "reference": "Patient/12724069"
        },
        "issued": 1607030537000,
        "valueCodeableConcept": {
          "coding": [
            {
              "system": "http://snomed.info/sct",
              "code": "373067005",
              "display": "No (qualifier value)"
            }
          ],
          "text": "No"
        },
        "_id": "qDeigHfaFC8xvfGwE"
      }
    },
    {
      "fullUrl": "Observation/SH-70-73116895",
      "resource": {
        "resourceType": "Observation",
        "id": "SH-70-73116895",
        "status": "final",
        "category": [
          {
            "coding": [
              {
                "system": "http://terminology.hl7.org/CodeSystem/observation-category",
                "code": "social-history",
                "display": "Social History"
              }
            ],
            "text": "Social History"
          }
        ],
        "code": {
          "coding": [
            {
              "system": "http://snomed.info/sct",
              "code": "363901006",
              "display": "Detail of sexuality and sexual activity (observable entity)"
            }
          ],
          "text": "Sexual"
        },
        "subject": {
          "reference": "Patient/12724069"
        },
        "issued": 1607030537000,
        "hasMember": [
          {
            "reference": "Observation/SH-73116895-q4626038"
          }
        ],
        "_id": "8kTs5E8ATm4rXm5Ao"
      }
    },
    {
      "fullUrl": "Observation/SH-73116885-q4625817",
      "resource": {
        "resourceType": "Observation",
        "id": "SH-73116885-q4625817",
        "status": "final",
        "category": [
          {
            "coding": [
              {
                "system": "http://terminology.hl7.org/CodeSystem/observation-category",
                "code": "social-history",
                "display": "Social History"
              }
            ],
            "text": "Social History"
          }
        ],
        "code": {
          "coding": [
            {
              "system": "http://snomed.info/sct",
              "code": "363905002",
              "display": "Details of alcohol drinking behavior (observable entity)"
            }
          ],
          "text": "SHX Alcohol use"
        },
        "subject": {
          "reference": "Patient/12724069"
        },
        "issued": 1607030522000,
        "valueCodeableConcept": {
          "text": "Never"
        },
        "_id": "84idK9geJipRMJ6gp"
      }
    },
    {
      "fullUrl": "Observation/SH-1-73116885",
      "resource": {
        "resourceType": "Observation",
        "id": "SH-1-73116885",
        "status": "final",
        "category": [
          {
            "coding": [
              {
                "system": "http://terminology.hl7.org/CodeSystem/observation-category",
                "code": "social-history",
                "display": "Social History"
              }
            ],
            "text": "Social History"
          }
        ],
        "code": {
          "coding": [
            {
              "system": "http://snomed.info/sct",
              "code": "363905002",
              "display": "Details of alcohol drinking behavior (observable entity)"
            }
          ],
          "text": "Alcohol"
        },
        "subject": {
          "reference": "Patient/12724069"
        },
        "issued": 1607030522000,
        "hasMember": [
          {
            "reference": "Observation/SH-73116885-q4625817"
          }
        ],
        "_id": "S69Er7we8y4oL2CBf"
      }
    },
    {
      "fullUrl": "Patient/12724069",
      "resource": {
        "resourceType": "Patient",
        "id": "12724069",
        "extension": [
          {
            "extension": [
              {
                "valueCoding": {
                  "system": "urn:oid:2.16.840.1.113883.6.238",
                  "code": "2106-3",
                  "display": "White",
                  "userSelected": false
                },
                "url": "ombCategory"
              },
              {
                "valueString": "White",
                "url": "text"
              }
            ],
            "url": "http://hl7.org/fhir/us/core/StructureDefinition/us-core-race"
          },
          {
            "extension": [
              {
                "valueCoding": {
                  "system": "urn:oid:2.16.840.1.113883.6.238",
                  "code": "2186-5",
                  "display": "Not Hispanic or Latino",
                  "userSelected": false
                },
                "url": "ombCategory"
              },
              {
                "valueString": "Not Hispanic, Latino, or Spanish Origin",
                "url": "text"
              }
            ],
            "url": "http://hl7.org/fhir/us/core/StructureDefinition/us-core-ethnicity"
          }
        ],
        "identifier": [
          {
            "id": "CI-490122199-0",
            "use": "usual",
            "type": {
              "coding": [
                {
                  "system": "https://fhir.cerner.com/ec2458f2-1e24-41c8-b71b-0e701af7583d/codeSet/4",
                  "code": "2",
                  "display": "Community Medical Record Number",
                  "userSelected": true
                },
                {
                  "system": "http://terminology.hl7.org/CodeSystem/v2-0203",
                  "code": "MR",
                  "display": "Medical record number",
                  "userSelected": false
                }
              ],
              "text": "Community Medical Record Number"
            },
            "system": "urn:oid:2.16.840.1.113883.3.787.0.0",
            "value": "1414",
            "_value": {
              "extension": [
                {
                  "valueString": "1414",
                  "url": "http://hl7.org/fhir/StructureDefinition/rendered-value"
                }
              ]
            }
          },
          {
            "id": "CI-490016908-1",
            "use": "usual",
            "type": {
              "coding": [
                {
                  "system": "https://fhir.cerner.com/ec2458f2-1e24-41c8-b71b-0e701af7583d/codeSet/4",
                  "code": "10",
                  "display": "MRN",
                  "userSelected": true
                },
                {
                  "system": "http://terminology.hl7.org/CodeSystem/v2-0203",
                  "code": "MR",
                  "display": "Medical record number",
                  "userSelected": false
                }
              ],
              "text": "MRN"
            },
            "system": "urn:oid:2.16.840.1.113883.6.1000",
            "value": "6933",
            "_value": {
              "extension": [
                {
                  "valueString": "00000006933",
                  "url": "http://hl7.org/fhir/StructureDefinition/rendered-value"
                }
              ]
            },
            "period": {
              "start": "2019-12-26T15:17:05.000Z"
            }
          },
          {
            "id": "CI-490068269-3",
            "use": "usual",
            "type": {
              "coding": [
                {
                  "system": "https://fhir.cerner.com/ec2458f2-1e24-41c8-b71b-0e701af7583d/codeSet/4",
                  "code": "22",
                  "display": "Military Id",
                  "userSelected": true
                }
              ],
              "text": "Military Id"
            },
            "system": "urn:oid:2.16.840.1.113883.3.42.10001.100001.12",
            "value": "1005007023",
            "_value": {
              "extension": [
                {
                  "valueString": "1005007023",
                  "url": "http://hl7.org/fhir/StructureDefinition/rendered-value"
                }
              ]
            }
          },
          {
            "id": "CI-490068390-4",
            "use": "usual",
            "type": {
              "coding": [
                {
                  "system": "https://fhir.cerner.com/ec2458f2-1e24-41c8-b71b-0e701af7583d/codeSet/4",
                  "code": "670843",
                  "display": "Messaging",
                  "userSelected": true
                },
                {
                  "system": "http://terminology.hl7.org/CodeSystem/v2-0203",
                  "code": "U",
                  "display": "Unspecified identifier",
                  "userSelected": false
                }
              ],
              "text": "Messaging"
            },
            "system": "urn:oid:2.16.840.1.113883.3.13.8",
            "value": "C35F2E9BE4E84B4C97A7C31F95C90C7A",
            "_value": {
              "extension": [
                {
                  "valueString": "C35F2E9BE4E84B4C97A7C31F95C90C7A",
                  "url": "http://hl7.org/fhir/StructureDefinition/rendered-value"
                }
              ]
            },
            "period": {
              "start": "2020-08-10T16:40:56.000Z"
            }
          },
          {
            "id": "CI-490105033-5",
            "use": "usual",
            "type": {
              "coding": [
                {
                  "system": "https://fhir.cerner.com/ec2458f2-1e24-41c8-b71b-0e701af7583d/codeSet/4",
                  "code": "2553236771",
                  "display": "Federated Person Principal",
                  "userSelected": true
                },
                {
                  "system": "http://terminology.hl7.org/CodeSystem/v2-0203",
                  "code": "AN",
                  "display": "Account number",
                  "userSelected": false
                }
              ],
              "text": "Federated Person Principal"
            },
            "system": "urn:oid:2.16.840.1.113883.3.13.6",
            "value": "URN:CERNER:IDENTITY-FEDERATION:REALM:EC2458F2-1E24-41C8-B71B-0E701AF7583D-CH:PRINCIPAL:WV6NY7J87D39CP3Y",
            "_value": {
              "extension": [
                {
                  "valueString": "URN:CERNER:IDENTITY-FEDERATION:REALM:EC2458F2-1E24-41C8-B71B-0E701AF7583D-CH:PRINCIPAL:WV6NY7J87D39CP3Y",
                  "url": "http://hl7.org/fhir/StructureDefinition/rendered-value"
                }
              ]
            }
          },
          {
            "id": "CI-490153240-6",
            "use": "usual",
            "type": {
              "coding": [
                {
                  "system": "https://fhir.cerner.com/ec2458f2-1e24-41c8-b71b-0e701af7583d/codeSet/4",
                  "code": "2553236785",
                  "display": "MIllennium Person Identifier",
                  "userSelected": true
                }
              ],
              "text": "MIllennium Person Identifier"
            },
            "_system": {
              "extension": [
                {
                  "valueCode": "unknown",
                  "url": "http://hl7.org/fhir/StructureDefinition/data-absent-reason"
                }
              ]
            },
            "value": "12871",
            "_value": {
              "extension": [
                {
                  "valueString": "12871",
                  "url": "http://hl7.org/fhir/StructureDefinition/rendered-value"
                }
              ]
            },
            "period": {
              "start": "2020-12-18T19:15:06.000Z"
            }
          }
        ],
        "active": true,
        "name": [
          {
            "id": "CI-12724069-0",
            "use": "official",
            "text": "SMART, TIMMY",
            "family": "SMART",
            "given": [
              "TIMMY"
            ],
            "period": {
              "start": "2019-12-26T15:17:05.000Z"
            },
            "resourceType": "HumanName"
          },
          {
            "id": "CI-490367448-0",
            "use": "old",
            "text": "SMARTT, TIMMY",
            "family": "SMARTT",
            "given": [
              "TIMMY"
            ],
            "period": {
              "start": "2021-07-13T14:16:03.000Z",
              "end": "2021-07-13T14:17:09.000Z"
            },
            "resourceType": "HumanName"
          },
          {
            "id": "CI-490367443-1",
            "use": "old",
            "text": "SMART, TIMMY",
            "family": "SMART",
            "given": [
              "TIMMY"
            ],
            "period": {
              "start": "2019-12-26T15:17:05.000Z",
              "end": "2021-07-13T14:16:03.000Z"
            },
            "resourceType": "HumanName"
          }
        ],
        "telecom": [
          {
            "id": "CI-PH-29811924-0",
            "extension": [
              {
                "valueUrl": "(987)454-6566",
                "url": "http://hl7.org/fhir/StructureDefinition/iso21090-TEL-address"
              }
            ],
            "system": "phone",
            "value": "9874546566",
            "use": "home",
            "rank": 1,
            "period": {
              "start": "2019-12-26T15:17:05.000Z"
            },
            "resourceType": "ContactPoint"
          },
          {
            "id": "CI-PH-29874332-1",
            "extension": [
              {
                "valueUrl": "(987)654-3210",
                "url": "http://hl7.org/fhir/StructureDefinition/iso21090-TEL-address"
              }
            ],
            "system": "phone",
            "value": "9876543210",
            "use": "mobile",
            "rank": 1,
            "resourceType": "ContactPoint"
          },
          {
            "id": "CI-EM-29822901-0",
            "system": "email",
            "value": "timmysmart@yopmail.com",
            "use": "home",
            "rank": 1,
            "period": {
              "start": "2020-06-30T20:41:33.000Z"
            },
            "resourceType": "ContactPoint"
          },
          {
            "id": "CI-EM-29875481-1",
            "system": "email",
            "value": "timmysmart@yopmail.com",
            "use": "home",
            "rank": 1,
            "resourceType": "ContactPoint"
          },
          {
            "id": "CI-EM-29874334-2",
            "system": "email",
            "value": "timmysmart@yopmail.com",
            "use": "home",
            "rank": 2,
            "resourceType": "ContactPoint"
          }
        ],
        "gender": "male",
        "birthDate": "2010-01-01",
        "deceasedBoolean": false,
        "address": [
          {
            "id": "CI-24313557-0",
            "use": "home",
            "text": "12345 MAIN ST\nKANSAS CITY, MO 64116\nUS",
            "line": [
              "12345 MAIN ST"
            ],
            "city": "KANSAS CITY",
            "district": "Jackson",
            "state": "MO",
            "postalCode": "64116",
            "country": "US",
            "period": {
              "start": "2019-12-26T15:16:36.000Z"
            },
            "resourceType": "Address"
          }
        ],
        "maritalStatus": {
          "coding": [
            {
              "system": "https://fhir.cerner.com/ec2458f2-1e24-41c8-b71b-0e701af7583d/codeSet/38",
              "code": "309239",
              "display": "Single",
              "userSelected": true
            },
            {
              "system": "http://terminology.hl7.org/CodeSystem/v3-MaritalStatus",
              "code": "S",
              "display": "Never Married",
              "userSelected": false
            }
          ],
          "text": "Single"
        },
        "contact": [
          {
            "relationship": [
              {
                "coding": [
                  {
                    "system": "https://fhir.cerner.com/ec2458f2-1e24-41c8-b71b-0e701af7583d/codeSet/351",
                    "code": "2553243305",
                    "display": "Authorized Representative",
                    "userSelected": true
                  }
                ],
                "text": "Authorized Representative"
              }
            ],
            "name": {
              "id": "CI-12724066-0",
              "use": "official",
              "text": "SMART, NANCY",
              "family": "SMART",
              "given": [
                "NANCY"
              ],
              "period": {
                "start": "2019-12-26T15:12:34.000Z"
              },
              "resourceType": "HumanName"
            },
            "telecom": [
              {
                "extension": [
                  {
                    "valueUrl": "(321)555-5555",
                    "url": "http://hl7.org/fhir/StructureDefinition/iso21090-TEL-address"
                  }
                ],
                "system": "phone",
                "value": "3215555555",
                "use": "work",
                "rank": 1,
                "period": {
                  "start": "2021-03-22T14:12:37.000Z"
                },
                "resourceType": "ContactPoint"
              },
              {
                "extension": [
                  {
                    "valueUrl": "(432)467-8767",
                    "url": "http://hl7.org/fhir/StructureDefinition/iso21090-TEL-address"
                  }
                ],
                "system": "phone",
                "value": "4324678767",
                "use": "home",
                "rank": 1,
                "period": {
                  "start": "2021-07-15T14:41:28.000Z"
                },
                "resourceType": "ContactPoint"
              },
              {
                "extension": [
                  {
                    "valueUrl": "(515)555-6789",
                    "url": "http://hl7.org/fhir/StructureDefinition/iso21090-TEL-address"
                  }
                ],
                "system": "phone",
                "value": "(515) 555-6789",
                "use": "home",
                "rank": 2,
                "resourceType": "ContactPoint"
              },
              {
                "extension": [
                  {
                    "valueUrl": "(432)467-8767",
                    "url": "http://hl7.org/fhir/StructureDefinition/iso21090-TEL-address"
                  }
                ],
                "system": "phone",
                "value": "(432) 467-8767",
                "use": "home",
                "rank": 3,
                "resourceType": "ContactPoint"
              },
              {
                "extension": [
                  {
                    "valueUrl": "(987)654-3210",
                    "url": "http://hl7.org/fhir/StructureDefinition/iso21090-TEL-address"
                  }
                ],
                "system": "phone",
                "value": "9876543210",
                "use": "home",
                "rank": 4,
                "period": {
                  "start": "2019-12-26T15:12:34.000Z"
                },
                "resourceType": "ContactPoint"
              },
              {
                "extension": [
                  {
                    "valueUrl": "(501)288-1111",
                    "url": "http://hl7.org/fhir/StructureDefinition/iso21090-TEL-address"
                  }
                ],
                "system": "phone",
                "value": "5012881111",
                "use": "mobile",
                "rank": 1,
                "period": {
                  "start": "2021-01-25T05:00:00.000Z"
                },
                "resourceType": "ContactPoint"
              },
              {
                "extension": [
                  {
                    "valueUrl": "5034008675",
                    "url": "http://hl7.org/fhir/StructureDefinition/iso21090-TEL-address"
                  }
                ],
                "system": "phone",
                "value": "5034008675",
                "use": "mobile",
                "rank": 1,
                "resourceType": "ContactPoint"
              },
              {
                "extension": [
                  {
                    "valueUrl": "5034008675",
                    "url": "http://hl7.org/fhir/StructureDefinition/iso21090-TEL-address"
                  }
                ],
                "system": "phone",
                "value": "5034008675",
                "use": "mobile",
                "rank": 1,
                "resourceType": "ContactPoint"
              },
              {
                "extension": [
                  {
                    "valueUrl": "5034008675",
                    "url": "http://hl7.org/fhir/StructureDefinition/iso21090-TEL-address"
                  }
                ],
                "system": "phone",
                "value": "5034008675",
                "use": "mobile",
                "rank": 1,
                "resourceType": "ContactPoint"
              },
              {
                "extension": [
                  {
                    "valueUrl": "5034008675",
                    "url": "http://hl7.org/fhir/StructureDefinition/iso21090-TEL-address"
                  }
                ],
                "system": "phone",
                "value": "5034008675",
                "use": "mobile",
                "rank": 1,
                "resourceType": "ContactPoint"
              },
              {
                "extension": [
                  {
                    "valueUrl": "(515)555-6789",
                    "url": "http://hl7.org/fhir/StructureDefinition/iso21090-TEL-address"
                  }
                ],
                "system": "phone",
                "value": "(515) 555-6789",
                "use": "mobile",
                "rank": 2,
                "resourceType": "ContactPoint"
              },
              {
                "extension": [
                  {
                    "valueUrl": "5034008675",
                    "url": "http://hl7.org/fhir/StructureDefinition/iso21090-TEL-address"
                  }
                ],
                "system": "phone",
                "value": "5034008675",
                "use": "mobile",
                "rank": 3,
                "resourceType": "ContactPoint"
              },
              {
                "extension": [
                  {
                    "valueUrl": "5034008675",
                    "url": "http://hl7.org/fhir/StructureDefinition/iso21090-TEL-address"
                  }
                ],
                "system": "phone",
                "value": "5034008675",
                "use": "mobile",
                "rank": 4,
                "resourceType": "ContactPoint"
              },
              {
                "extension": [
                  {
                    "valueUrl": "5034008675",
                    "url": "http://hl7.org/fhir/StructureDefinition/iso21090-TEL-address"
                  }
                ],
                "system": "phone",
                "value": "5034008675",
                "use": "mobile",
                "rank": 5,
                "resourceType": "ContactPoint"
              },
              {
                "extension": [
                  {
                    "valueUrl": "5034008675",
                    "url": "http://hl7.org/fhir/StructureDefinition/iso21090-TEL-address"
                  }
                ],
                "system": "phone",
                "value": "5034008675",
                "use": "mobile",
                "rank": 6,
                "resourceType": "ContactPoint"
              },
              {
                "extension": [
                  {
                    "valueUrl": "5034008675",
                    "url": "http://hl7.org/fhir/StructureDefinition/iso21090-TEL-address"
                  }
                ],
                "system": "phone",
                "value": "5034008675",
                "use": "mobile",
                "rank": 7,
                "period": {
                  "start": "2021-01-25T05:00:00.000Z"
                },
                "resourceType": "ContactPoint"
              },
              {
                "extension": [
                  {
                    "valueUrl": "5034008675",
                    "url": "http://hl7.org/fhir/StructureDefinition/iso21090-TEL-address"
                  }
                ],
                "system": "phone",
                "value": "5034008675",
                "use": "mobile",
                "rank": 8,
                "period": {
                  "start": "2021-01-25T05:00:00.000Z"
                },
                "resourceType": "ContactPoint"
              },
              {
                "extension": [
                  {
                    "valueUrl": "5034008675",
                    "url": "http://hl7.org/fhir/StructureDefinition/iso21090-TEL-address"
                  }
                ],
                "system": "phone",
                "value": "5034008675",
                "use": "mobile",
                "rank": 9,
                "period": {
                  "start": "2021-01-25T05:00:00.000Z"
                },
                "resourceType": "ContactPoint"
              },
              {
                "extension": [
                  {
                    "valueUrl": "5034008675",
                    "url": "http://hl7.org/fhir/StructureDefinition/iso21090-TEL-address"
                  }
                ],
                "system": "phone",
                "value": "5034008675",
                "use": "mobile",
                "rank": 10,
                "period": {
                  "start": "2021-01-25T00:33:18.000Z"
                },
                "resourceType": "ContactPoint"
              },
              {
                "system": "email",
                "value": "hello@a.com",
                "use": "home",
                "rank": 1,
                "period": {
                  "start": "2020-06-30T19:47:10.000Z"
                },
                "resourceType": "ContactPoint"
              },
              {
                "system": "email",
                "value": "workemail@gmail.com",
                "use": "home",
                "rank": 1,
                "resourceType": "ContactPoint"
              },
              {
                "system": "email",
                "value": "workemail@gmail.com",
                "use": "home",
                "rank": 1,
                "resourceType": "ContactPoint"
              },
              {
                "system": "email",
                "value": "workemail@gmail.com",
                "use": "home",
                "rank": 1,
                "resourceType": "ContactPoint"
              },
              {
                "system": "email",
                "value": "workemail@gmail.com",
                "use": "home",
                "rank": 1,
                "resourceType": "ContactPoint"
              },
              {
                "system": "email",
                "value": "none",
                "use": "home",
                "rank": 2,
                "resourceType": "ContactPoint"
              },
              {
                "system": "email",
                "value": "workemail@gmail.com",
                "use": "home",
                "rank": 3,
                "resourceType": "ContactPoint"
              },
              {
                "system": "email",
                "value": "workemail@gmail.com",
                "use": "home",
                "rank": 4,
                "resourceType": "ContactPoint"
              },
              {
                "system": "email",
                "value": "workemail@gmail.com",
                "use": "home",
                "rank": 5,
                "resourceType": "ContactPoint"
              },
              {
                "system": "email",
                "value": "workemail@gmail.com",
                "use": "home",
                "rank": 6,
                "resourceType": "ContactPoint"
              },
              {
                "system": "email",
                "value": "workemail@gmail.com",
                "use": "home",
                "rank": 7,
                "resourceType": "ContactPoint"
              }
            ],
            "address": {
              "use": "home",
              "text": "3P\nKANSAS CITY, MO 64151-0001\nUS",
              "line": [
                "3P"
              ],
              "city": "KANSAS CITY",
              "district": "Jackson",
              "state": "MO",
              "postalCode": "64151-0001",
              "country": "US",
              "period": {
                "start": "2020-12-08T15:05:44.000Z"
              }
            },
            "gender": "female",
            "period": {
              "start": "2020-08-10T16:37:51.000Z"
            }
          },
          {
            "relationship": [
              {
                "coding": [
                  {
                    "system": "https://fhir.cerner.com/ec2458f2-1e24-41c8-b71b-0e701af7583d/codeSet/351",
                    "code": "1153",
                    "display": "Family Member",
                    "userSelected": true
                  }
                ],
                "text": "Family Member"
              }
            ],
            "name": {
              "id": "CI-12724066-1",
              "use": "official",
              "text": "SMART, NANCY",
              "family": "SMART",
              "given": [
                "NANCY"
              ],
              "period": {
                "start": "2019-12-26T15:12:34.000Z"
              },
              "resourceType": "HumanName"
            },
            "telecom": [
              {
                "extension": [
                  {
                    "valueUrl": "(321)555-5555",
                    "url": "http://hl7.org/fhir/StructureDefinition/iso21090-TEL-address"
                  }
                ],
                "system": "phone",
                "value": "3215555555",
                "use": "work",
                "rank": 1,
                "period": {
                  "start": "2021-03-22T14:12:37.000Z"
                },
                "resourceType": "ContactPoint"
              },
              {
                "extension": [
                  {
                    "valueUrl": "(432)467-8767",
                    "url": "http://hl7.org/fhir/StructureDefinition/iso21090-TEL-address"
                  }
                ],
                "system": "phone",
                "value": "4324678767",
                "use": "home",
                "rank": 1,
                "period": {
                  "start": "2021-07-15T14:41:28.000Z"
                },
                "resourceType": "ContactPoint"
              },
              {
                "extension": [
                  {
                    "valueUrl": "(515)555-6789",
                    "url": "http://hl7.org/fhir/StructureDefinition/iso21090-TEL-address"
                  }
                ],
                "system": "phone",
                "value": "(515) 555-6789",
                "use": "home",
                "rank": 2,
                "resourceType": "ContactPoint"
              },
              {
                "extension": [
                  {
                    "valueUrl": "(432)467-8767",
                    "url": "http://hl7.org/fhir/StructureDefinition/iso21090-TEL-address"
                  }
                ],
                "system": "phone",
                "value": "(432) 467-8767",
                "use": "home",
                "rank": 3,
                "resourceType": "ContactPoint"
              },
              {
                "extension": [
                  {
                    "valueUrl": "(987)654-3210",
                    "url": "http://hl7.org/fhir/StructureDefinition/iso21090-TEL-address"
                  }
                ],
                "system": "phone",
                "value": "9876543210",
                "use": "home",
                "rank": 4,
                "period": {
                  "start": "2019-12-26T15:12:34.000Z"
                },
                "resourceType": "ContactPoint"
              },
              {
                "extension": [
                  {
                    "valueUrl": "(501)288-1111",
                    "url": "http://hl7.org/fhir/StructureDefinition/iso21090-TEL-address"
                  }
                ],
                "system": "phone",
                "value": "5012881111",
                "use": "mobile",
                "rank": 1,
                "period": {
                  "start": "2021-01-25T05:00:00.000Z"
                },
                "resourceType": "ContactPoint"
              },
              {
                "extension": [
                  {
                    "valueUrl": "5034008675",
                    "url": "http://hl7.org/fhir/StructureDefinition/iso21090-TEL-address"
                  }
                ],
                "system": "phone",
                "value": "5034008675",
                "use": "mobile",
                "rank": 1,
                "resourceType": "ContactPoint"
              },
              {
                "extension": [
                  {
                    "valueUrl": "5034008675",
                    "url": "http://hl7.org/fhir/StructureDefinition/iso21090-TEL-address"
                  }
                ],
                "system": "phone",
                "value": "5034008675",
                "use": "mobile",
                "rank": 1,
                "resourceType": "ContactPoint"
              },
              {
                "extension": [
                  {
                    "valueUrl": "5034008675",
                    "url": "http://hl7.org/fhir/StructureDefinition/iso21090-TEL-address"
                  }
                ],
                "system": "phone",
                "value": "5034008675",
                "use": "mobile",
                "rank": 1,
                "resourceType": "ContactPoint"
              },
              {
                "extension": [
                  {
                    "valueUrl": "5034008675",
                    "url": "http://hl7.org/fhir/StructureDefinition/iso21090-TEL-address"
                  }
                ],
                "system": "phone",
                "value": "5034008675",
                "use": "mobile",
                "rank": 1,
                "resourceType": "ContactPoint"
              },
              {
                "extension": [
                  {
                    "valueUrl": "(515)555-6789",
                    "url": "http://hl7.org/fhir/StructureDefinition/iso21090-TEL-address"
                  }
                ],
                "system": "phone",
                "value": "(515) 555-6789",
                "use": "mobile",
                "rank": 2,
                "resourceType": "ContactPoint"
              },
              {
                "extension": [
                  {
                    "valueUrl": "5034008675",
                    "url": "http://hl7.org/fhir/StructureDefinition/iso21090-TEL-address"
                  }
                ],
                "system": "phone",
                "value": "5034008675",
                "use": "mobile",
                "rank": 3,
                "resourceType": "ContactPoint"
              },
              {
                "extension": [
                  {
                    "valueUrl": "5034008675",
                    "url": "http://hl7.org/fhir/StructureDefinition/iso21090-TEL-address"
                  }
                ],
                "system": "phone",
                "value": "5034008675",
                "use": "mobile",
                "rank": 4,
                "resourceType": "ContactPoint"
              },
              {
                "extension": [
                  {
                    "valueUrl": "5034008675",
                    "url": "http://hl7.org/fhir/StructureDefinition/iso21090-TEL-address"
                  }
                ],
                "system": "phone",
                "value": "5034008675",
                "use": "mobile",
                "rank": 5,
                "resourceType": "ContactPoint"
              },
              {
                "extension": [
                  {
                    "valueUrl": "5034008675",
                    "url": "http://hl7.org/fhir/StructureDefinition/iso21090-TEL-address"
                  }
                ],
                "system": "phone",
                "value": "5034008675",
                "use": "mobile",
                "rank": 6,
                "resourceType": "ContactPoint"
              },
              {
                "extension": [
                  {
                    "valueUrl": "5034008675",
                    "url": "http://hl7.org/fhir/StructureDefinition/iso21090-TEL-address"
                  }
                ],
                "system": "phone",
                "value": "5034008675",
                "use": "mobile",
                "rank": 7,
                "period": {
                  "start": "2021-01-25T05:00:00.000Z"
                },
                "resourceType": "ContactPoint"
              },
              {
                "extension": [
                  {
                    "valueUrl": "5034008675",
                    "url": "http://hl7.org/fhir/StructureDefinition/iso21090-TEL-address"
                  }
                ],
                "system": "phone",
                "value": "5034008675",
                "use": "mobile",
                "rank": 8,
                "period": {
                  "start": "2021-01-25T05:00:00.000Z"
                },
                "resourceType": "ContactPoint"
              },
              {
                "extension": [
                  {
                    "valueUrl": "5034008675",
                    "url": "http://hl7.org/fhir/StructureDefinition/iso21090-TEL-address"
                  }
                ],
                "system": "phone",
                "value": "5034008675",
                "use": "mobile",
                "rank": 9,
                "period": {
                  "start": "2021-01-25T05:00:00.000Z"
                },
                "resourceType": "ContactPoint"
              },
              {
                "extension": [
                  {
                    "valueUrl": "5034008675",
                    "url": "http://hl7.org/fhir/StructureDefinition/iso21090-TEL-address"
                  }
                ],
                "system": "phone",
                "value": "5034008675",
                "use": "mobile",
                "rank": 10,
                "period": {
                  "start": "2021-01-25T00:33:18.000Z"
                },
                "resourceType": "ContactPoint"
              },
              {
                "system": "email",
                "value": "hello@a.com",
                "use": "home",
                "rank": 1,
                "period": {
                  "start": "2020-06-30T19:47:10.000Z"
                },
                "resourceType": "ContactPoint"
              },
              {
                "system": "email",
                "value": "workemail@gmail.com",
                "use": "home",
                "rank": 1,
                "resourceType": "ContactPoint"
              },
              {
                "system": "email",
                "value": "workemail@gmail.com",
                "use": "home",
                "rank": 1,
                "resourceType": "ContactPoint"
              },
              {
                "system": "email",
                "value": "workemail@gmail.com",
                "use": "home",
                "rank": 1,
                "resourceType": "ContactPoint"
              },
              {
                "system": "email",
                "value": "workemail@gmail.com",
                "use": "home",
                "rank": 1,
                "resourceType": "ContactPoint"
              },
              {
                "system": "email",
                "value": "none",
                "use": "home",
                "rank": 2,
                "resourceType": "ContactPoint"
              },
              {
                "system": "email",
                "value": "workemail@gmail.com",
                "use": "home",
                "rank": 3,
                "resourceType": "ContactPoint"
              },
              {
                "system": "email",
                "value": "workemail@gmail.com",
                "use": "home",
                "rank": 4,
                "resourceType": "ContactPoint"
              },
              {
                "system": "email",
                "value": "workemail@gmail.com",
                "use": "home",
                "rank": 5,
                "resourceType": "ContactPoint"
              },
              {
                "system": "email",
                "value": "workemail@gmail.com",
                "use": "home",
                "rank": 6,
                "resourceType": "ContactPoint"
              },
              {
                "system": "email",
                "value": "workemail@gmail.com",
                "use": "home",
                "rank": 7,
                "resourceType": "ContactPoint"
              }
            ],
            "address": {
              "use": "home",
              "text": "3P\nKANSAS CITY, MO 64151-0001\nUS",
              "line": [
                "3P"
              ],
              "city": "KANSAS CITY",
              "district": "Jackson",
              "state": "MO",
              "postalCode": "64151-0001",
              "country": "US",
              "period": {
                "start": "2020-12-08T15:05:44.000Z"
              }
            },
            "gender": "female",
            "period": {
              "start": "2020-08-10T16:37:51.000Z"
            }
          }
        ],
        "communication": [
          {
            "language": {
              "coding": [
                {
                  "system": "https://fhir.cerner.com/ec2458f2-1e24-41c8-b71b-0e701af7583d/codeSet/36",
                  "code": "151",
                  "display": "English",
                  "userSelected": true
                },
                {
                  "system": "urn:ietf:bcp:47",
                  "code": "en",
                  "display": "English",
                  "userSelected": false
                }
              ],
              "text": "English"
            },
            "preferred": true
          }
        ],
        "generalPractitioner": [
          {
            "id": "CI-490136598-1",
            "reference": "Practitioner/12744688",
            "display": "PWDentrix, Dentalprofessional"
          },
          {
            "id": "CI-490017083-2",
            "reference": "Practitioner/4122622",
            "display": "Cerner Test, Physician - Hospitalist Cerner"
          }
        ],
        "_birthDate": "2010-01-01T06:00:00.000Z",
        "_id": "rnbhfBftvTxjwDPCd"
      }
    },
    {
      "fullUrl": "Patient/nancy-smart",
      "resource": {
        "resourceType": "Patient",
        "id": "nancy-smart",
        "active": true,
        "name": [
          {
            "use": "official",
            "text": "SMART, NANCY",
            "family": "SMART",
            "given": [
              "NANCY"
            ],
            "period": {
              "start": "2019-12-26T15:12:34.000Z"
            },
            "resourceType": "HumanName"
          }
        ],
        "gender": "female",
        "birthDate": "1990-01-15",
        "deceasedBoolean": false,
        "address": [
          {
            "id": "CI-24313557-0",
            "use": "home",
            "text": "12345 MAIN ST\nKANSAS CITY, MO 64116\nUS",
            "line": [
              "12345 MAIN ST"
            ],
            "city": "KANSAS CITY",
            "district": "Jackson",
            "state": "MO",
            "postalCode": "64116",
            "country": "US",
            "period": {
              "start": "2019-12-26T15:16:36.000Z"
            },
            "resourceType": "Address"
          }
        ],
        "maritalStatus": {
          "coding": [
            {
              "system": "http://terminology.hl7.org/CodeSystem/v3-MaritalStatus",
              "code": "S",
              "display": "Never Married",
              "userSelected": false
            }
          ],
          "text": "Single"
        },
        "_id": "qhtfZvXeEFgd5sJ4i"
      }
    },
    {
      "fullUrl": "Practitioner/maggie-caseworker",
      "resource": {
        "resourceType": "Practitioner",
        "id": "maggie-caseworker",
        "active": true,
        "name": [
          {
            "use": "official",
            "text": "CASEWORKER, MAGGIE",
            "family": "CASEWORKER",
            "given": [
              "MAGGIE"
            ],
            "resourceType": "HumanName"
          }
        ],
        "gender": "female",
        "birthDate": "1992-08-13",
        "_id": "H4LMGM9fPwdrHi2rJ"
      }
    },
    {
      "fullUrl": "Procedure/408935001",
      "resource": {
        "resourceType": "Procedure",
        "id": "408935001",
        "status": "completed",
        "code": {
          "coding": [
            {
              "system": "http://snomed.info/sct",
              "code": "408935001",
              "display": "Screening for child sexual abuse (procedure)",
              "userSelected": true
            }
          ],
          "text": "Screening for child sexual abuse (procedure)"
        },
        "subject": {
          "reference": "Patient/12724069",
          "display": "SMART, TIMMY"
        },
        "encounter": {
          "reference": "Encounter/97953492"
        },
        "performedDateTime": "2020-11-04T00:00:00.000Z",
        "recorder": {
          "reference": "Practitioner/12732051",
          "display": "PWHandtevy, Physician - Emergency Medicine"
        },
        "performer": [
          {
            "actor": {
              "reference": "Practitioner/4122630",
              "display": "Cerner Test, Physician - Women's Health Cerner"
            }
          }
        ],
        "notDone": false,
        "_id": "7eqydA6fKPTLgZEN9"
      }
    },
    {
      "fullUrl": "Procedure/2572738951",
      "resource": {
        "resourceType": "Procedure",
        "id": "2572738951",
        "status": "completed",
        "code": {
          "coding": [
            {
              "system": "http://www.ama-assn.org/go/cpt",
              "code": "99497",
              "display": "Advance care planning including the explanation and discussion of advance directives such as standard forms (with completion of such forms, when performed), by the physician or other qualified health care professional; first 30 minutes, face-to-face with the patient, family member(s), and/or surrogate",
              "userSelected": true
            }
          ],
          "text": "Advance Care Planning; first 30 minutes"
        },
        "performedDateTime": "2021-03-15",
        "subject": {
          "reference": "Patient/12724069",
          "display": "SMART, TIMMY"
        },
        "encounter": {
          "reference": "Encounter/97953492"
        },
        "recorder": {
          "reference": "Practitioner/12743411",
          "display": "PWAffirmHealth, MDCardio"
        },
        "notDone": true,
        "_id": "5Wn72ZBpStiTvGRnm"
      }
    },
    {
      "fullUrl": "Procedure/306090001",
      "resource": {
        "resourceType": "Procedure",
        "id": "306090001",
        "status": "completed",
        "code": {
          "coding": [
            {
              "system": "http://snomed.info/sct",
              "code": "306090001",
              "display": "Referral by social worker (procedure)",
              "userSelected": true
            }
          ],
          "text": "Referral by social worker (procedure)"
        },
        "subject": {
          "reference": "Patient/12724069",
          "display": "SMART, TIMMY"
        },
        "encounter": {
          "reference": "Encounter/97953492"
        },
        "performedDateTime": "2020-08-21T00:00:00.000Z",
        "recorder": {
          "reference": "Practitioner/maggie-caseworker",
          "display": "Caseworker, Maggie - Social Worker"
        },
        "performer": [
          {
            "actor": {
              "reference": "Practitioner/maggie-caseworker",
              "display": "Caseworker, Maggie - Social Worker"
            }
          }
        ],
        "notDone": false,
        "_id": "qPBryQB9dCYQyiqLC"
      }
    },
    {
      "fullUrl": "Procedure/306238000",
      "resource": {
        "resourceType": "Procedure",
        "id": "306238000",
        "status": "completed",
        "code": {
          "coding": [
            {
              "system": "http://snomed.info/sct",
              "code": "306238000",
              "display": "Referral to Social Services (procedure)",
              "userSelected": true
            }
          ],
          "text": "Referral to Social Services (procedure)"
        },
        "subject": {
          "reference": "Patient/12724069",
          "display": "SMART, TIMMY"
        },
        "encounter": {
          "reference": "Encounter/97953492"
        },
        "performedDateTime": "2020-08-21T00:00:00.000Z",
        "recorder": {
          "reference": "Practitioner/12732051",
          "display": "PWHandtevy, Physician - Emergency Medicine"
        },
        "performer": [
          {
            "actor": {
              "reference": "Practitioner/4122630",
              "display": "Cerner Test, Physician - Women's Health Cerner"
            }
          }
        ],
        "notDone": false,
        "_id": "yJP6f5ZFBBzTys4qy"
      }
    },
    {
      "fullUrl": "Procedure/275821008",
      "resource": {
        "resourceType": "Procedure",
        "id": "275821008",
        "status": "completed",
        "code": {
          "coding": [
            {
              "system": "http://snomed.info/sct",
              "code": "275821008",
              "display": "Referral of child (procedure)",
              "userSelected": true
            }
          ],
          "text": "Referral of child (procedure)"
        },
        "subject": {
          "reference": "Patient/12724069",
          "display": "SMART, TIMMY"
        },
        "encounter": {
          "reference": "Encounter/97953492"
        },
        "performedDateTime": "2020-08-21T00:00:00.000Z",
        "recorder": {
          "reference": "Practitioner/maggie-caseworker",
          "display": "Caseworker, Maggie - Social Worker"
        },
        "performer": [
          {
            "actor": {
              "reference": "Practitioner/maggie-caseworker",
              "display": "Caseworker, Maggie - Social Worker"
            }
          }
        ],
        "notDone": false,
        "_id": "iHyfTMZgSTqsqtHHb"
      }
    },
    {
      "fullUrl": "Procedure/410552003",
      "resource": {
        "resourceType": "Procedure",
        "id": "410552003",
        "status": "completed",
        "code": {
          "coding": [
            {
              "system": "http://snomed.info/sct",
              "code": "410552003",
              "display": "Guardian interview (procedure)",
              "userSelected": true
            }
          ],
          "text": "Guardian interview (procedure)"
        },
        "subject": {
          "reference": "Patient/12724069",
          "display": "SMART, TIMMY"
        },
        "encounter": {
          "reference": "Encounter/97953492"
        },
        "performedDateTime": "2020-10-08T00:00:00.000Z",
        "recorder": {
          "reference": "Practitioner/maggie-caseworker",
          "display": "Caseworker, Maggie - Social Worker"
        },
        "performer": [
          {
            "actor": {
              "reference": "Practitioner/maggie-caseworker",
              "display": "Caseworker, Maggie - Social Worker"
            }
          }
        ],
        "notDone": false,
        "_id": "XwgDphNxjmMpfYLzd"
      }
    },
    {
      "fullUrl": "Procedure/308440001",
      "resource": {
        "resourceType": "Procedure",
        "id": "308440001",
        "status": "completed",
        "code": {
          "coding": [
            {
              "system": "http://snomed.info/sct",
              "code": "308440001",
              "display": "Referral to social worker (procedure)",
              "userSelected": true
            }
          ],
          "text": "Referral to social worker (procedure)"
        },
        "subject": {
          "reference": "Patient/12724069",
          "display": "SMART, TIMMY"
        },
        "encounter": {
          "reference": "Encounter/97953492"
        },
        "performedDateTime": "2020-09-15T00:00:00.000Z",
        "recorder": {
          "reference": "Practitioner/12732051",
          "display": "PWHandtevy, Physician - Emergency Medicine"
        },
        "performer": [
          {
            "actor": {
              "reference": "Practitioner/4122630",
              "display": "Cerner Test, Physician - Women's Health Cerner"
            }
          }
        ],
        "notDone": false,
        "_id": "6JCoyaZcMfpRaQpjg"
      }
    },
    {
      "fullUrl": "Procedure/370853001",
      "resource": {
        "resourceType": "Procedure",
        "id": "370853001",
        "status": "completed",
        "code": {
          "coding": [
            {
              "system": "http://snomed.info/sct",
              "code": "370853001",
              "display": "Screening for physical abuse (procedure)",
              "userSelected": true
            }
          ],
          "text": "Screening for physical abuse (procedure)"
        },
        "subject": {
          "reference": "Patient/12724069",
          "display": "SMART, TIMMY"
        },
        "encounter": {
          "reference": "Encounter/97953492"
        },
        "performedDateTime": "2020-11-07T00:00:00.000Z",
        "recorder": {
          "reference": "Practitioner/12732051",
          "display": "PWHandtevy, Physician - Emergency Medicine"
        },
        "performer": [
          {
            "actor": {
              "reference": "Practitioner/4122630",
              "display": "Cerner Test, Physician - Women's Health Cerner"
            }
          }
        ],
        "notDone": false,
        "_id": "DW2ozGtDqcjHDj4pQ"
      }
    },
    {
      "fullUrl": "Procedure/309630000",
      "resource": {
        "resourceType": "Procedure",
        "id": "309630000",
        "status": "completed",
        "code": {
          "coding": [
            {
              "system": "http://snomed.info/sct",
              "code": "309630000",
              "display": "Child referral-social services (procedure)",
              "userSelected": true
            }
          ],
          "text": "Child referral-social services (procedure)"
        },
        "subject": {
          "reference": "Patient/12724069",
          "display": "SMART, TIMMY"
        },
        "encounter": {
          "reference": "Encounter/97953492"
        },
        "performedDateTime": "2020-09-22T00:00:00.000Z",
        "recorder": {
          "reference": "Practitioner/maggie-caseworker",
          "display": "Caseworker, Maggie - Social Worker"
        },
        "performer": [
          {
            "actor": {
              "reference": "Practitioner/maggie-caseworker",
              "display": "Caseworker, Maggie - Social Worker"
            }
          }
        ],
        "notDone": false,
        "_id": "ZvzmecKbz7fKs6A8B"
      }
    },
    {
      "fullUrl": "Procedure/3457005",
      "resource": {
        "resourceType": "Procedure",
        "id": "3457005",
        "status": "completed",
        "code": {
          "coding": [
            {
              "system": "http://snomed.info/sct",
              "code": "3457005",
              "display": "Patient referral (procedure)",
              "userSelected": true
            }
          ],
          "text": "Patient referral (procedure)"
        },
        "subject": {
          "reference": "Patient/12724069",
          "display": "SMART, TIMMY"
        },
        "encounter": {
          "reference": "Encounter/97953492"
        },
        "performedDateTime": "2020-11-15T00:00:00.000Z",
        "recorder": {
          "reference": "Practitioner/12732051",
          "display": "PWHandtevy, Physician - Emergency Medicine"
        },
        "performer": [
          {
            "actor": {
              "reference": "Practitioner/4122630",
              "display": "Cerner Test, Physician - Women's Health Cerner"
            }
          }
        ],
        "notDone": false,
        "_id": "DFMBeZgm8EfhbC93P"
      }
    },
    {
      "fullUrl": "Procedure/2658000",
      "resource": {
        "resourceType": "Procedure",
        "id": "2658000",
        "status": "completed",
        "code": {
          "coding": [
            {
              "system": "http://snomed.info/sct",
              "code": "2658000",
              "display": "Social service interview of patient (procedure)",
              "userSelected": true
            }
          ],
          "text": "Social service interview of patient (procedure)"
        },
        "subject": {
          "reference": "Patient/12724069",
          "display": "SMART, TIMMY"
        },
        "encounter": {
          "reference": "Encounter/97953492"
        },
        "performedDateTime": "2020-10-15T00:00:00.000Z",
        "recorder": {
          "reference": "Practitioner/12732051",
          "display": "PWHandtevy, Physician - Emergency Medicine"
        },
        "performer": [
          {
            "actor": {
              "reference": "Practitioner/4122630",
              "display": "Cerner Test, Physician - Women's Health Cerner"
            }
          }
        ],
        "notDone": false,
        "_id": "MzSQ8dhjgXnibLvJd"
      }
    },
    {
      "fullUrl": "Procedure/22759000",
      "resource": {
        "resourceType": "Procedure",
        "id": "22759000",
        "status": "completed",
        "code": {
          "coding": [
            {
              "system": "http://snomed.info/sct",
              "code": "22759000",
              "display": "Social service interview of family (procedure)",
              "userSelected": true
            }
          ],
          "text": "Social service interview of family (procedure)"
        },
        "subject": {
          "reference": "Patient/12724069",
          "display": "SMART, TIMMY"
        },
        "encounter": {
          "reference": "Encounter/97953492"
        },
        "performedDateTime": "2020-10-22T00:00:00.000Z",
        "recorder": {
          "reference": "Practitioner/12732051",
          "display": "PWHandtevy, Physician - Emergency Medicine"
        },
        "performer": [
          {
            "actor": {
              "reference": "Practitioner/4122630",
              "display": "Cerner Test, Physician - Women's Health Cerner"
            }
          }
        ],
        "notDone": false,
        "_id": "hziBCyQ2egHn7eqwn"
      }
    },
    {
      "fullUrl": "Procedure/162596006",
      "resource": {
        "resourceType": "Procedure",
        "id": "162596006",
        "status": "completed",
        "code": {
          "coding": [
            {
              "system": "http://snomed.info/sct",
              "code": "162596006",
              "display": "Suspected victim of child abuse (situation)",
              "userSelected": true
            }
          ],
          "text": "Suspected victim of child abuse (situation)"
        },
        "subject": {
          "reference": "Patient/12724069",
          "display": "SMART, TIMMY"
        },
        "encounter": {
          "reference": "Encounter/97953492"
        },
        "performedDateTime": "2020-10-16T00:00:00.000Z",
        "recorder": {
          "reference": "Practitioner/12732051",
          "display": "PWHandtevy, Physician - Emergency Medicine"
        },
        "performer": [
          {
            "actor": {
              "reference": "Practitioner/4122630",
              "display": "Cerner Test, Physician - Women's Health Cerner"
            }
          }
        ],
        "notDone": false,
        "_id": "ZzdTs2tecHiZub36b"
      }
    },
    {
      "fullUrl": "Procedure/225338004",
      "resource": {
        "resourceType": "Procedure",
        "id": "225338004",
        "status": "completed",
        "code": {
          "coding": [
            {
              "system": "http://snomed.info/sct",
              "code": "225338004",
              "display": "Risk assessment (procedure)",
              "userSelected": true
            }
          ],
          "text": "Risk assessment (procedure)"
        },
        "subject": {
          "reference": "Patient/12724069",
          "display": "SMART, TIMMY"
        },
        "encounter": {
          "reference": "Encounter/97953492"
        },
        "performedDateTime": "2020-10-17T00:00:00.000Z",
        "recorder": {
          "reference": "Practitioner/12732051",
          "display": "PWHandtevy, Physician - Emergency Medicine"
        },
        "performer": [
          {
            "actor": {
              "reference": "Practitioner/4122630",
              "display": "Cerner Test, Physician - Women's Health Cerner"
            }
          }
        ],
        "notDone": false,
        "_id": "DkCJgJh3quhLA2WSd"
      }
    },
    {
      "fullUrl": "Procedure/225340009",
      "resource": {
        "resourceType": "Procedure",
        "id": "225340009",
        "status": "completed",
        "code": {
          "coding": [
            {
              "system": "http://snomed.info/sct",
              "code": "225340009",
              "display": "Housing assessment (procedure)",
              "userSelected": true
            }
          ],
          "text": "Housing assessment (procedure)"
        },
        "subject": {
          "reference": "Patient/12724069",
          "display": "SMART, TIMMY"
        },
        "encounter": {
          "reference": "Encounter/97953492"
        },
        "performedDateTime": "2020-11-15T00:00:00.000Z",
        "recorder": {
          "reference": "Practitioner/12732051",
          "display": "PWHandtevy, Physician - Emergency Medicine"
        },
        "performer": [
          {
            "actor": {
              "reference": "Practitioner/4122630",
              "display": "Cerner Test, Physician - Women's Health Cerner"
            }
          }
        ],
        "notDone": false,
        "_id": "iyuTy8RsucR7czCqJ"
      }
    },
    {
      "fullUrl": "Procedure/306206005",
      "resource": {
        "resourceType": "Procedure",
        "id": "306206005",
        "status": "completed",
        "code": {
          "coding": [
            {
              "system": "http://snomed.info/sct",
              "code": "306206005",
              "display": "Referral to service (procedure)",
              "userSelected": true
            }
          ],
          "text": "Referral to service (procedure)"
        },
        "subject": {
          "reference": "Patient/12724069",
          "display": "SMART, TIMMY"
        },
        "encounter": {
          "reference": "Encounter/97953492"
        },
        "performedDateTime": "2020-12-17T00:00:00.000Z",
        "recorder": {
          "reference": "Practitioner/maggie-caseworker",
          "display": "Caseworker, Maggie - Social Worker"
        },
        "performer": [
          {
            "actor": {
              "reference": "Practitioner/maggie-caseworker",
              "display": "Caseworker, Maggie - Social Worker"
            }
          }
        ],
        "notDone": false,
        "_id": "dFsB5hhfa7WZvBToL"
      }
    },
    {
      "fullUrl": "Procedure/410341008",
      "resource": {
        "resourceType": "Procedure",
        "id": "410341008",
        "status": "completed",
        "code": {
          "coding": [
            {
              "system": "http://snomed.info/sct",
              "code": "410341008",
              "display": "Housing case management (procedure)",
              "userSelected": true
            }
          ],
          "text": "Housing case management (procedure)"
        },
        "subject": {
          "reference": "Patient/12724069",
          "display": "SMART, TIMMY"
        },
        "encounter": {
          "reference": "Encounter/97953492"
        },
        "performedDateTime": "2020-12-02T00:00:00.000Z",
        "recorder": {
          "reference": "Practitioner/12732051",
          "display": "PWHandtevy, Physician - Emergency Medicine"
        },
        "performer": [
          {
            "actor": {
              "reference": "Practitioner/4122630",
              "display": "Cerner Test, Physician - Women's Health Cerner"
            }
          }
        ],
        "notDone": false,
        "_id": "LF5ALmWXv9baY2CdS"
      }
    },
    {
      "fullUrl": "Procedure/386497007",
      "resource": {
        "resourceType": "Procedure",
        "id": "386497007",
        "status": "completed",
        "code": {
          "coding": [
            {
              "system": "http://snomed.info/sct",
              "code": "386497007",
              "display": "Child abuse prevention (procedure)",
              "userSelected": true
            }
          ],
          "text": "Child abuse prevention (procedure)"
        },
        "subject": {
          "reference": "Patient/12724069",
          "display": "SMART, TIMMY"
        },
        "encounter": {
          "reference": "Encounter/97953492"
        },
        "performedDateTime": "2020-10-15T00:00:00.000Z",
        "recorder": {
          "reference": "Practitioner/12732051",
          "display": "PWHandtevy, Physician - Emergency Medicine"
        },
        "performer": [
          {
            "actor": {
              "reference": "Practitioner/4122630",
              "display": "Cerner Test, Physician - Women's Health Cerner"
            }
          }
        ],
        "notDone": false,
        "_id": "pnCrM4jwqHfqgJCR3"
      }
    },
    {
      "fullUrl": "Procedure/700230007",
      "resource": {
        "resourceType": "Procedure",
        "id": "700230007",
        "status": "completed",
        "code": {
          "coding": [
            {
              "system": "http://snomed.info/sct",
              "code": "700230007",
              "display": "Substance abuse prevention education (procedure)",
              "userSelected": true
            }
          ],
          "text": "Substance abuse prevention education (procedure)"
        },
        "subject": {
          "reference": "Patient/12724069",
          "display": "SMART, TIMMY"
        },
        "encounter": {
          "reference": "Encounter/97953492"
        },
        "performedDateTime": "2020-01-05T00:00:00.000Z",
        "recorder": {
          "reference": "Practitioner/12732051",
          "display": "PWHandtevy, Physician - Emergency Medicine"
        },
        "performer": [
          {
            "actor": {
              "reference": "Practitioner/4122630",
              "display": "Cerner Test, Physician - Women's Health Cerner"
            }
          }
        ],
        "notDone": false,
        "_id": "mvofdJztsiv3YXFNi"
      }
    },
    {
      "fullUrl": "Procedure/370854007",
      "resource": {
        "resourceType": "Procedure",
        "id": "370854007",
        "status": "completed",
        "code": {
          "coding": [
            {
              "system": "http://snomed.info/sct",
              "code": "370854007",
              "display": "Screening for substance abuse (procedure)",
              "userSelected": true
            }
          ],
          "text": "Screening for substance abuse (procedure)"
        },
        "subject": {
          "reference": "Patient/12724069",
          "display": "SMART, TIMMY"
        },
        "encounter": {
          "reference": "Encounter/97953492"
        },
        "performedDateTime": "2020-11-10T00:00:00.000Z",
        "recorder": {
          "reference": "Practitioner/12732051",
          "display": "PWHandtevy, Physician - Emergency Medicine"
        },
        "performer": [
          {
            "actor": {
              "reference": "Practitioner/4122630",
              "display": "Cerner Test, Physician - Women's Health Cerner"
            }
          }
        ],
        "notDone": false,
        "_id": "Cdj5DChabwanx4qGH"
      }
    },
    {
      "fullUrl": "Procedure/408933008",
      "resource": {
        "resourceType": "Procedure",
        "id": "408933008",
        "status": "completed",
        "code": {
          "coding": [
            {
              "system": "http://snomed.info/sct",
              "code": "408933008",
              "display": "Substance abuse prevention (procedure)",
              "userSelected": true
            }
          ],
          "text": "Substance abuse prevention (procedure)"
        },
        "subject": {
          "reference": "Patient/12724069",
          "display": "SMART, TIMMY"
        },
        "encounter": {
          "reference": "Encounter/97953492"
        },
        "performedDateTime": "2020-11-05T00:00:00.000Z",
        "recorder": {
          "reference": "Practitioner/12732051",
          "display": "PWHandtevy, Physician - Emergency Medicine"
        },
        "performer": [
          {
            "actor": {
              "reference": "Practitioner/4122630",
              "display": "Cerner Test, Physician - Women's Health Cerner"
            }
          }
        ],
        "notDone": false,
        "_id": "Q9AmurQsuZzmH6FCD"
      }
    },
    {
      "fullUrl": "Procedure/1002224003",
      "resource": {
        "resourceType": "Procedure",
        "id": "1002224003",
        "status": "completed",
        "code": {
          "coding": [
            {
              "system": "http://snomed.info/sct",
              "code": "1002224003",
              "display": "Assessment for food insecurity (procedure)",
              "userSelected": true
            }
          ],
          "text": "Assessment for food insecurity (procedure)"
        },
        "subject": {
          "reference": "Patient/12724069",
          "display": "SMART, TIMMY"
        },
        "encounter": {
          "reference": "Encounter/97953492"
        },
        "performedDateTime": "2020-11-21T00:00:00.000Z",
        "recorder": {
          "reference": "Practitioner/12732051",
          "display": "PWHandtevy, Physician - Emergency Medicine"
        },
        "performer": [
          {
            "actor": {
              "reference": "Practitioner/4122630",
              "display": "Cerner Test, Physician - Women's Health Cerner"
            }
          }
        ],
        "notDone": false,
        "_id": "GkSW4oRLnegBQazoB"
      }
    },
    {
      "fullUrl": "Procedure/183432009",
      "resource": {
        "resourceType": "Procedure",
        "id": "183432009",
        "status": "completed",
        "code": {
          "coding": [
            {
              "system": "http://snomed.info/sct",
              "code": "183432009",
              "display": "Application to foster a child (procedure)",
              "userSelected": true
            }
          ],
          "text": "Application to foster a child (procedure)"
        },
        "subject": {
          "reference": "Patient/john-caring",
          "display": "CARING, JOHN"
        },
        "encounter": {
          "reference": "Encounter/97953492"
        },
        "performedDateTime": "2019-06-01T00:00:00.000Z",
        "recorder": {
          "reference": "Practitioner/maggie-caseworker",
          "display": "Caseworker, Maggie - Social Worker"
        },
        "notDone": false,
        "_id": "6QXPpznYrfukGqNXp"
      }
    },
    {
      "fullUrl": "Procedure/2572645903",
      "resource": {
        "resourceType": "Procedure",
        "id": "2572645903",
        "status": "completed",
        "code": {
          "coding": [
            {
              "system": "http://www.ama-assn.org/go/cpt",
              "code": "99497",
              "display": "Advance care planning including the explanation and discussion of advance directives such as standard forms (with completion of such forms, when performed), by the physician or other qualified health care professional; first 30 minutes, face-to-face with the patient, family member(s), and/or surrogate",
              "userSelected": true
            }
          ],
          "text": "Advance Care Planning; first 30 minutes"
        },
        "subject": {
          "reference": "Patient/12724069",
          "display": "SMART, TIMMY"
        },
        "encounter": {
          "reference": "Encounter/97955605"
        },
        "_performedDateTime": {
          "extension": [
            {
              "valueCode": "unknown",
              "url": "http://hl7.org/fhir/StructureDefinition/data-absent-reason"
            }
          ]
        },
        "recorder": {
          "reference": "Practitioner/12743411",
          "display": "PWAffirmHealth, MDCardio"
        },
        "notDone": true,
        "performedDateTime": "2012-06-20",
        "_id": "o3ba79r3JTZvd6ugN"
      }
    },
    {
      "fullUrl": "Procedure/2572738681",
      "resource": {
        "resourceType": "Procedure",
        "id": "2572738681",
        "status": "completed",
        "code": {
          "coding": [
            {
              "system": "http://www.ama-assn.org/go/cpt",
              "code": "99498",
              "display": "Advance care planning including the explanation and discussion of advance directives such as standard forms (with completion of such forms, when performed), by the physician or other qualified health care professional; each additional 30 minutes (List separately in addition to code for primary procedure)",
              "userSelected": true
            }
          ],
          "text": "Advance Care Planning; additional 30 minutes"
        },
        "subject": {
          "reference": "Patient/12724069",
          "display": "SMART, TIMMY"
        },
        "encounter": {
          "reference": "Encounter/97955605"
        },
        "_performedDateTime": {
          "extension": [
            {
              "valueCode": "unknown",
              "url": "http://hl7.org/fhir/StructureDefinition/data-absent-reason"
            }
          ]
        },
        "recorder": {
          "reference": "Practitioner/12743411",
          "display": "PWAffirmHealth, MDCardio"
        },
        "notDone": true,
        "performedDateTime": "2015-10-26",
        "_id": "9p27BmeuDnvXfWDwQ"
      }
    },
    {
      "fullUrl": "Procedure/288834001",
      "resource": {
        "resourceType": "Procedure",
        "id": "288834001",
        "status": "completed",
        "code": {
          "coding": [
            {
              "system": "http://snomed.info/sct",
              "code": "288834001",
              "display": "Agreeing on care plan (procedure)",
              "userSelected": true
            }
          ],
          "text": "Agreeing on care plan (procedure)"
        },
        "subject": {
          "reference": "Patient/12724069",
          "display": "SMART, TIMMY"
        },
        "encounter": {
          "reference": "Encounter/97953492"
        },
        "performedDateTime": "2020-12-15T00:00:00.000Z",
        "recorder": {
          "reference": "Practitioner/12732051",
          "display": "PWHandtevy, Physician - Emergency Medicine"
        },
        "performer": [
          {
            "actor": {
              "reference": "Practitioner/4122630",
              "display": "Cerner Test, Physician - Women's Health Cerner"
            }
          }
        ],
        "notDone": false,
        "_id": "GXCK5unyMTsJ5fGDA"
      }
    },
    {
      "fullUrl": "Procedure/84100007",
      "resource": {
        "resourceType": "Procedure",
        "id": "84100007",
        "status": "completed",
        "code": {
          "coding": [
            {
              "system": "http://snomed.info/sct",
              "code": "84100007",
              "display": "History taking (procedure)",
              "userSelected": true
            }
          ],
          "text": "History taking (procedure)"
        },
        "subject": {
          "reference": "Patient/12724069",
          "display": "SMART, TIMMY"
        },
        "encounter": {
          "reference": "Encounter/97953492"
        },
        "performedDateTime": "2020-12-15T00:00:00.000Z",
        "recorder": {
          "reference": "Practitioner/12732051",
          "display": "PWHandtevy, Physician - Emergency Medicine"
        },
        "performer": [
          {
            "actor": {
              "reference": "Practitioner/4122630",
              "display": "Cerner Test, Physician - Women's Health Cerner"
            }
          }
        ],
        "notDone": false,
        "_id": "dvd7qAX7oQB9aB8dG"
      }
    },
    {
      "fullUrl": "Procedure/2572738975",
      "resource": {
        "resourceType": "Procedure",
        "id": "2572738975",
        "status": "completed",
        "code": {
          "coding": [
            {
              "system": "http://www.ama-assn.org/go/cpt",
              "code": "99497",
              "display": "Advance care planning including the explanation and discussion of advance directives such as standard forms (with completion of such forms, when performed), by the physician or other qualified health care professional; first 30 minutes, face-to-face with the patient, family member(s), and/or surrogate",
              "userSelected": true
            }
          ],
          "text": "Advance Care Planning; first 30 minutes"
        },
        "subject": {
          "reference": "Patient/12724069",
          "display": "SMART, TIMMY"
        },
        "encounter": {
          "reference": "Encounter/97939527"
        },
        "performedDateTime": "2019-12-26T00:00:00.000Z",
        "recorder": {
          "reference": "Practitioner/12743411",
          "display": "PWAffirmHealth, MDCardio"
        },
        "performer": [
          {
            "actor": {
              "reference": "Practitioner/11817978",
              "display": "Carter, Kristin Cerner"
            }
          }
        ],
        "reasonReference": [
          {
            "reference": "Condition/d2572738973",
            "display": "Advance care planning (procedure)"
          }
        ],
        "note": [
          {
            "authorReference": {
              "reference": "Practitioner/12743411",
              "display": "PWAffirmHealth, MDCardio"
            },
            "time": "2020-11-15T12:27:09.000Z",
            "text": "Patient voluntarily discussed advance care planning with MDCardio PWAffirmHealth (on behalf of Kristin Cerner Carter) on 12/26/2019 for 16 minutes for an initial discussion."
          }
        ],
        "notDone": true,
        "_id": "xPjDRavJCnWKs9b4Q"
      }
    },
    {
      "fullUrl": "Procedure/2572738961",
      "resource": {
        "resourceType": "Procedure",
        "id": "2572738961",
        "status": "completed",
        "code": {
          "coding": [
            {
              "system": "http://www.ama-assn.org/go/cpt",
              "code": "99498",
              "display": "Advance care planning including the explanation and discussion of advance directives such as standard forms (with completion of such forms, when performed), by the physician or other qualified health care professional; each additional 30 minutes (List separately in addition to code for primary procedure)",
              "userSelected": true
            }
          ],
          "text": "Advance Care Planning; additional 30 minutes"
        },
        "subject": {
          "reference": "Patient/12724069",
          "display": "SMART, TIMMY"
        },
        "encounter": {
          "reference": "Encounter/97953492"
        },
        "performedDateTime": "2020-03-04T00:00:00.000Z",
        "recorder": {
          "reference": "Practitioner/12743411",
          "display": "PWAffirmHealth, MDCardio"
        },
        "performer": [
          {
            "actor": {
              "display": "Portal, Portal"
            }
          }
        ],
        "note": [
          {
            "authorReference": {
              "reference": "Practitioner/12743411",
              "display": "PWAffirmHealth, MDCardio"
            },
            "time": "2020-11-15T12:23:45.000Z",
            "text": "update 1"
          },
          {
            "authorReference": {
              "reference": "Practitioner/12743411",
              "display": "PWAffirmHealth, MDCardio"
            },
            "time": "2020-11-15T11:27:24.000Z",
            "text": "Patient voluntarily discussed advance care planning with Portal Portal on 3/4/2020 for 46 minutes (family present) for an annual discussion. Printed and reviewed Do-Not-Resuscitate Order, Michigan."
          }
        ],
        "notDone": true,
        "_id": "CQi7pLPSijAL2jRxh"
      }
    }
  ]
}
